File: xrd_output/2M1-std2.TXT
Sample
Comments
Filename	C:\WINDMAX\DATA\USERS\GEO\GEO_ER~1\Pyrenees\BULKMA~1\2M1-std2.raw
Goniometer	Ultima IV In-plane
Attachment	Auto sample changer (10 samples)
ScanningMode	2Theta/Theta
ScanningType	Continuos Scanning
X-Ray	40kV/44mA
DivSlit	2/3deg.
DivH.L.Slit	10mm
SctSlit	2/3deg.
RecSlit	0.3mm
Start	16
Stop	44
Step	0.02
Speed	0.3
Offset	0
16	694
16.02	693.25
16.04	714.5
16.06	709.5
16.08	700.5
16.1	730.75
16.12	731.5
16.14	717.75
16.16	749.75
16.18	712
16.2	695.5
16.22	704
16.24	705
16.26	681.25
16.28	654.75
16.3	655.25
16.32	658.75
16.34	645
16.36	658.25
16.38	665.5
16.4	631.5
16.42	646.75
16.44	638
16.46	664
16.48	640
16.5	642.75
16.52	642.5
16.54	648.5
16.56	649.75
16.58	669
16.6	635.5
16.62	648.75
16.64	644.25
16.66	640.75
16.68	641.25
16.7	638.5
16.72	631.5
16.74	660.25
16.76	650.25
16.78	618.75
16.8	655.75
16.82	649.75
16.84	672.5
16.86	630.75
16.88	654.25
16.9	648
16.92	633.5
16.94	650.25
16.96	635
16.98	620.5
17	640.75
17.02	642.75
17.04	657
17.06	647.25
17.08	662.75
17.1	644.25
17.12	671.25
17.14	645.5
17.16	647.5
17.18	676
17.2	633.75
17.22	667
17.24	651.75
17.26	666.75
17.28	657.5
17.3	651.75
17.32	639
17.34	664
17.36	657.5
17.38	662
17.4	684.75
17.42	678.25
17.44	668
17.46	697.75
17.48	693.75
17.5	711
17.52	736.5
17.54	728
17.56	732.5
17.58	736.25
17.6	780
17.62	787.5
17.64	800
17.66	792.75
17.68	867
17.7	903.25
17.72	920.5
17.74	980.75
17.76	999
17.78	1042
17.8	1093.5
17.82	1167.25
17.84	1192.25
17.86	1257.5
17.88	1264.75
17.9	1347.75
17.92	1324.25
17.94	1312
17.96	1347.5
17.98	1270
18	1316.75
18.02	1297.25
18.04	1281.25
18.06	1251.5
18.08	1231.25
18.1	1167.25
18.12	1161
18.14	1119
18.16	1042.25
18.18	988.75
18.2	942.5
18.22	913.5
18.24	897
18.26	854.5
18.28	836.25
18.3	763.75
18.32	799.25
18.34	789.75
18.36	798.5
18.38	789.5
18.4	749.25
18.42	754.25
18.44	788.75
18.46	732
18.48	729.25
18.5	729
18.52	721
18.54	738.25
18.56	726.25
18.58	725.25
18.6	761.5
18.62	738.5
18.64	739
18.66	723.25
18.68	754.25
18.7	746.5
18.72	754
18.74	757.25
18.76	745.5
18.78	743.25
18.8	757
18.82	744.5
18.84	748.5
18.86	764.75
18.88	745.25
18.9	704.75
18.92	727.75
18.94	730
18.96	702.25
18.98	708.75
19	679.25
19.02	691.75
19.04	723.25
19.06	716.75
19.08	726
19.1	704
19.12	717.75
19.14	726.25
19.16	718.75
19.18	721
19.2	719.75
19.22	712.25
19.24	705.75
19.26	707.75
19.28	728.5
19.3	761.5
19.32	734
19.34	737
19.36	743.5
19.38	727.75
19.4	763
19.42	760.75
19.44	774
19.46	762.75
19.48	771.25
19.5	797.75
19.52	814.75
19.54	851
19.56	879.5
19.58	879.75
19.6	928
19.62	956.75
19.64	999
19.66	1040.75
19.68	1085
19.7	1160.75
19.72	1171.25
19.74	1233.75
19.76	1307
19.78	1396.75
19.8	1508
19.82	1600.75
19.84	1788.75
19.86	1870.75
19.88	2028
19.9	2204
19.92	2218.5
19.94	2344.5
19.96	2474.25
19.98	2570.25
20	2671.5
20.02	2672
20.04	2613.25
20.06	2551
20.08	2475
20.1	2341.5
20.12	2173
20.14	1992.25
20.16	1833.5
20.18	1669.5
20.2	1503.5
20.22	1387.75
20.24	1350.25
20.26	1248.25
20.28	1213.5
20.3	1168.25
20.32	1163.75
20.34	1074.25
20.36	1089.25
20.38	1104.25
20.4	1086.25
20.42	1015.25
20.44	1016.5
20.46	1009.5
20.48	1005.75
20.5	963
20.52	956.75
20.54	935
20.56	936.25
20.58	976.75
20.6	995.5
20.62	993
20.64	1016.75
20.66	1036.25
20.68	1070.25
20.7	1117.25
20.72	1116.75
20.74	1174
20.76	1163.75
20.78	1209.75
20.8	1223.5
20.82	1240.25
20.84	1180.5
20.86	1143.75
20.88	1117.25
20.9	1093
20.92	1045.5
20.94	1028.5
20.96	981.75
20.98	916
21	903.75
21.02	879.5
21.04	870
21.06	852.25
21.08	818.25
21.1	788.25
21.12	822.5
21.14	797.75
21.16	802.5
21.18	803.75
21.2	788.25
21.22	799
21.24	803.25
21.26	791.25
21.28	793
21.3	798.75
21.32	799.5
21.34	791.5
21.36	819.25
21.38	838.5
21.4	823.75
21.42	854.75
21.44	849.75
21.46	869.25
21.48	873.25
21.5	927.25
21.52	930
21.54	959
21.56	980.75
21.58	1007.5
21.6	1034.75
21.62	1059.75
21.64	1062
21.66	1086.75
21.68	1069
21.7	1102.25
21.72	1080.5
21.74	1094.25
21.76	1101.25
21.78	1112.25
21.8	1053.5
21.82	1025.75
21.84	1012.75
21.86	977.5
21.88	936.5
21.9	940.75
21.92	894.25
21.94	877.5
21.96	843.5
21.98	853.75
22	849
22.02	818.25
22.04	828
22.06	822
22.08	813
22.1	805
22.12	797.25
22.14	791.25
22.16	818
22.18	792.5
22.2	794.75
22.22	788.75
22.24	811.25
22.26	813.5
22.28	799
22.3	826
22.32	813
22.34	804.5
22.36	857.25
22.38	861.25
22.4	843
22.42	857
22.44	877.25
22.46	896.5
22.48	908
22.5	908.25
22.52	893.25
22.54	896
22.56	923
22.58	941.75
22.6	920.5
22.62	940.25
22.64	969.5
22.66	948.5
22.68	922.75
22.7	929.75
22.72	947.75
22.74	1003.25
22.76	994.25
22.78	1014
22.8	1032.5
22.82	1084.5
22.84	1109.75
22.86	1144.5
22.88	1174.75
22.9	1251.25
22.92	1314
22.94	1334.5
22.96	1435.75
22.98	1482.75
23	1538
23.02	1585
23.04	1599
23.06	1656.25
23.08	1636.25
23.1	1609
23.12	1590.25
23.14	1529.25
23.16	1419.25
23.18	1401
23.2	1326.5
23.22	1271.25
23.24	1185.5
23.26	1111.5
23.28	1068.5
23.3	1036
23.32	998.25
23.34	947.25
23.36	923.5
23.38	934
23.4	874.75
23.42	906.75
23.44	874.25
23.46	878.75
23.48	859.25
23.5	862.5
23.52	909
23.54	892
23.56	891.5
23.58	922.75
23.6	916.75
23.62	927.25
23.64	923.25
23.66	982
23.68	969.75
23.7	1010
23.72	1009.5
23.74	1078.25
23.76	1150.5
23.78	1143.75
23.8	1186.5
23.82	1218.5
23.84	1280
23.86	1313.25
23.88	1381.25
23.9	1434.25
23.92	1464.5
23.94	1524
23.96	1567
23.98	1566.5
24	1573.75
24.02	1576.25
24.04	1579.5
24.06	1509.75
24.08	1497.75
24.1	1453
24.12	1410.25
24.14	1380.75
24.16	1352
24.18	1317.75
24.2	1315.75
24.22	1268.5
24.24	1241.5
24.26	1193.5
24.28	1196.75
24.3	1102
24.32	1078
24.34	1066.75
24.36	1010
24.38	969.25
24.4	949
24.42	942.25
24.44	878.75
24.46	843.5
24.48	865.75
24.5	845.25
24.52	883.75
24.54	821.75
24.56	840
24.58	807.5
24.6	818.5
24.62	840.5
24.64	798.75
24.66	795.25
24.68	824.5
24.7	816.5
24.72	829.75
24.74	846
24.76	827.5
24.78	842.75
24.8	810.25
24.82	841.75
24.84	844.25
24.86	853.25
24.88	854
24.9	870.5
24.92	886.25
24.94	890
24.96	909.75
24.98	878.75
25	910.25
25.02	908.5
25.04	963.25
25.06	969.75
25.08	962.25
25.1	1012.5
25.12	1006.25
25.14	1019.25
25.16	1056
25.18	1069.25
25.2	1087
25.22	1122
25.24	1125.75
25.26	1129.25
25.28	1124.5
25.3	1152.25
25.32	1179.25
25.34	1199
25.36	1171
25.38	1236.5
25.4	1199.75
25.42	1230.75
25.44	1278.25
25.46	1315.75
25.48	1395.5
25.5	1434.25
25.52	1455
25.54	1540
25.56	1550.5
25.58	1650.5
25.6	1692.75
25.62	1690
25.64	1691.75
25.66	1705.25
25.68	1719
25.7	1644.75
25.72	1572
25.74	1544.25
25.76	1481.75
25.78	1362.75
25.8	1293.25
25.82	1230.5
25.84	1159.5
25.86	1161.5
25.88	1090.5
25.9	1015
25.92	1015.5
25.94	1009
25.96	929.5
25.98	930.5
26	913.75
26.02	909.25
26.04	877.5
26.06	881
26.08	889.75
26.1	873.75
26.12	871.25
26.14	883.5
26.16	875.5
26.18	904.75
26.2	865.5
26.22	895.75
26.24	891.5
26.26	891
26.28	894.75
26.3	919
26.32	910
26.34	906.25
26.36	946.5
26.38	983.25
26.4	977.75
26.42	1005
26.44	1037.5
26.46	1080
26.48	1088.25
26.5	1131.25
26.52	1156.75
26.54	1205.75
26.56	1276
26.58	1336.25
26.6	1400.5
26.62	1475
26.64	1551
26.66	1608.25
26.68	1735.75
26.7	1823
26.72	1916.75
26.74	2051.5
26.76	2138.25
26.78	2204.75
26.8	2266.75
26.82	2354.5
26.84	2375.5
26.86	2417
26.88	2395.75
26.9	2347.25
26.92	2270.5
26.94	2261.75
26.96	2097.5
26.98	1999.5
27	1875.25
27.02	1787.5
27.04	1642.25
27.06	1504.75
27.08	1476.25
27.1	1374.75
27.12	1321.5
27.14	1228.25
27.16	1157.5
27.18	1106.75
27.2	1082.75
27.22	1057.25
27.24	1031.75
27.26	986.25
27.28	952.75
27.3	976.5
27.32	968
27.34	927.75
27.36	897.75
27.38	931.75
27.4	898.25
27.42	886.5
27.44	909
27.46	899.5
27.48	906
27.5	902.5
27.52	930.25
27.54	926
27.56	910.5
27.58	945
27.6	953
27.62	921.5
27.64	955.25
27.66	975
27.68	964
27.7	1015.25
27.72	1061.75
27.74	1090
27.76	1061.5
27.78	1110.25
27.8	1154.25
27.82	1240.5
27.84	1246.25
27.86	1332.25
27.88	1362.25
27.9	1461.75
27.92	1510.25
27.94	1559
27.96	1636.5
27.98	1637.75
28	1704.25
28.02	1674.75
28.04	1669.5
28.06	1654
28.08	1606.25
28.1	1531.5
28.12	1503
28.14	1416
28.16	1359.25
28.18	1300.25
28.2	1239.5
28.22	1178
28.24	1117.25
28.26	1129.75
28.28	1079.25
28.3	1064.25
28.32	1064
28.34	1017.5
28.36	1001.75
28.38	953.5
28.4	931.75
28.42	932
28.44	900.75
28.46	910
28.48	868
28.5	888
28.52	859
28.54	896
28.56	870.75
28.58	881
28.6	866.75
28.62	927.5
28.64	916.5
28.66	901.25
28.68	917
28.7	928.25
28.72	957.5
28.74	938.5
28.76	927.75
28.78	886.75
28.8	900.75
28.82	880.75
28.84	868.25
28.86	854.5
28.88	848.25
28.9	881.25
28.92	866.5
28.94	853
28.96	844
28.98	877.25
29	843.25
29.02	856
29.04	866
29.06	831
29.08	806.75
29.1	837.25
29.12	791.5
29.14	800.75
29.16	790
29.18	757.75
29.2	771.5
29.22	755.25
29.24	766.75
29.26	757.5
29.28	780
29.3	740.25
29.32	755
29.34	749.25
29.36	766.25
29.38	752
29.4	751.25
29.42	725
29.44	748
29.46	742.5
29.48	769
29.5	740.75
29.52	769.25
29.54	765.5
29.56	787
29.58	802
29.6	798.25
29.62	825.25
29.64	879.5
29.66	862.5
29.68	891
29.7	903.25
29.72	950.5
29.74	964.25
29.76	1026.25
29.78	1068.75
29.8	1070.5
29.82	1136
29.84	1203
29.86	1243.25
29.88	1271
29.9	1330.5
29.92	1411
29.94	1454.5
29.96	1511.5
29.98	1528.5
30	1551.25
30.02	1566.25
30.04	1583.25
30.06	1537.75
30.08	1500.25
30.1	1417.5
30.12	1411.25
30.14	1321
30.16	1247.25
30.18	1191
30.2	1141
30.22	1092.25
30.24	1037.5
30.26	991
30.28	949.75
30.3	903.25
30.32	878.5
30.34	838.25
30.36	830.75
30.38	805
30.4	800.75
30.42	794.25
30.44	779
30.46	756
30.48	734.75
30.5	724
30.52	726
30.54	730
30.56	726
30.58	715.5
30.6	708
30.62	708.75
30.64	700.5
30.66	735
30.68	723.75
30.7	699.5
30.72	712.5
30.74	712.75
30.76	710
30.78	733.75
30.8	729.5
30.82	722.5
30.84	737.5
30.86	743.75
30.88	732.5
30.9	757.75
30.92	744.75
30.94	784.75
30.96	792.25
30.98	808.5
31	828.25
31.02	836
31.04	836.75
31.06	894
31.08	922.75
31.1	965
31.12	963
31.14	1014.5
31.16	1044
31.18	1104.25
31.2	1152
31.22	1196
31.24	1251
31.26	1318.25
31.28	1341.5
31.3	1427.75
31.32	1444.5
31.34	1505.25
31.36	1507.5
31.38	1513.25
31.4	1570.25
31.42	1563.5
31.44	1552
31.46	1570.5
31.48	1510.5
31.5	1468
31.52	1462.75
31.54	1454.25
31.56	1448.75
31.58	1460
31.6	1472.25
31.62	1466
31.64	1459.5
31.66	1461
31.68	1456.5
31.7	1423
31.72	1420.5
31.74	1397
31.76	1347.75
31.78	1370.5
31.8	1355.75
31.82	1317.25
31.84	1333
31.86	1295.25
31.88	1255.75
31.9	1175
31.92	1157.75
31.94	1131.75
31.96	1110.5
31.98	1065.25
32	1033.5
32.02	1035
32.04	1043.25
32.06	1055.25
32.08	1062.5
32.1	1105.5
32.12	1116.25
32.14	1146.5
32.16	1109.5
32.18	1169.75
32.2	1156.25
32.22	1152.75
32.24	1137
32.26	1096.25
32.28	1077
32.3	1070.75
32.32	1014.5
32.34	979.75
32.36	935.5
32.38	907.75
32.4	843.75
32.42	852.5
32.44	821.25
32.46	804.75
32.48	804.25
32.5	759.5
32.52	748.5
32.54	752
32.56	728.25
32.58	732.25
32.6	745
32.62	708.75
32.64	688.25
32.66	689.5
32.68	700
32.7	693.75
32.72	716
32.74	705
32.76	665.5
32.78	667
32.8	691.75
32.82	704.25
32.84	704.25
32.86	712.25
32.88	719.75
32.9	699.25
32.92	706
32.94	747.5
32.96	705.5
32.98	717.25
33	720.5
33.02	755
33.04	701
33.06	708.75
33.08	693.5
33.1	683.75
33.12	694.25
33.14	677.25
33.16	688
33.18	656
33.2	679.25
33.22	672.25
33.24	662.75
33.26	641.75
33.28	689
33.3	654.75
33.32	665
33.34	646.25
33.36	627.75
33.38	639.75
33.4	646.5
33.42	641.75
33.44	628.25
33.46	646.75
33.48	636.25
33.5	637.5
33.52	650.25
33.54	647.75
33.56	625.5
33.58	638.5
33.6	625.25
33.62	624.75
33.64	671
33.66	676.25
33.68	655.25
33.7	665
33.72	677.75
33.74	653
33.76	680.5
33.78	678.75
33.8	672.25
33.82	660
33.84	674.75
33.86	664.75
33.88	686.75
33.9	684.5
33.92	711
33.94	703.75
33.96	728.5
33.98	702.75
34	717
34.02	710.25
34.04	741.75
34.06	737
34.08	726.25
34.1	736
34.12	744.25
34.14	742
34.16	769.25
34.18	734.5
34.2	768
34.22	735.25
34.24	713.5
34.26	746.75
34.28	713.25
34.3	730.5
34.32	748.25
34.34	733.5
34.36	739.5
34.38	763.5
34.4	781
34.42	787.75
34.44	788.25
34.46	828.5
34.48	872
34.5	897.25
34.52	927
34.54	989.75
34.56	1041.25
34.58	1047
34.6	1149.5
34.62	1189
34.64	1285.75
34.66	1382.5
34.68	1425
34.7	1519.25
34.72	1546
34.74	1597.75
34.76	1644.5
34.78	1693.75
34.8	1682.5
34.82	1727.5
34.84	1691
34.86	1736
34.88	1754.5
34.9	1776.5
34.92	1827.5
34.94	1851.25
34.96	1908.5
34.98	2039.5
35	2066.75
35.02	2250.25
35.04	2328.75
35.06	2424
35.08	2563.5
35.1	2657
35.12	2736.25
35.14	2754.25
35.16	2823.5
35.18	2818.25
35.2	2807.5
35.22	2666.25
35.24	2546
35.26	2448.5
35.28	2269.25
35.3	2091
35.32	1925
35.34	1805.25
35.36	1629
35.38	1501.75
35.4	1400.5
35.42	1286.5
35.44	1172.5
35.46	1114
35.48	1024
35.5	1005.25
35.52	967.75
35.54	917.25
35.56	874.75
35.58	864.5
35.6	883
35.62	863.25
35.64	842.75
35.66	839
35.68	801
35.7	801.25
35.72	808.5
35.74	821.5
35.76	791.25
35.78	795.5
35.8	795.5
35.82	791.5
35.84	784.25
35.86	814
35.88	817.75
35.9	839.5
35.92	828.75
35.94	818.5
35.96	832.5
35.98	823.5
36	856.75
36.02	830.25
36.04	832.75
36.06	840.5
36.08	846
36.1	855
36.12	837.5
36.14	868.25
36.16	833.25
36.18	866.75
36.2	866.5
36.22	843.5
36.24	836.75
36.26	853.75
36.28	859
36.3	822.5
36.32	858.25
36.34	860.5
36.36	835
36.38	860
36.4	872.75
36.42	870
36.44	910.25
36.46	929.25
36.48	948.25
36.5	978.75
36.52	1045
36.54	1021.25
36.56	1027.5
36.58	1082
36.6	1094
36.62	1136.25
36.64	1101
36.66	1086.25
36.68	1104.75
36.7	1067.25
36.72	1104.5
36.74	1067
36.76	1054.5
36.78	994.25
36.8	1024
36.82	1000.75
36.84	1020.75
36.86	984
36.88	993
36.9	967.5
36.92	955
36.94	935.25
36.96	934.5
36.98	933
37	921.5
37.02	877.75
37.04	885.75
37.06	849.75
37.08	844.75
37.1	805.25
37.12	774.25
37.14	792.5
37.16	778.25
37.18	754.5
37.2	774.75
37.22	789.5
37.24	776.75
37.26	779.5
37.28	750.5
37.3	761.25
37.32	759.75
37.34	761.25
37.36	759
37.38	774.25
37.4	812.5
37.42	804
37.44	801.5
37.46	822.5
37.48	851
37.5	866
37.52	840.75
37.54	871.5
37.56	902.5
37.58	914.75
37.6	919.25
37.62	932.75
37.64	980.5
37.66	987
37.68	998.25
37.7	1033.75
37.72	1064.25
37.74	1064.25
37.76	1106.25
37.78	1097.25
37.8	1113.5
37.82	1122
37.84	1149
37.86	1171.5
37.88	1177
37.9	1201.75
37.92	1210
37.94	1195.5
37.96	1192
37.98	1184
38	1161.25
38.02	1125.75
38.04	1123.5
38.06	1089.25
38.08	1069
38.1	1015.75
38.12	971.5
38.14	965.75
38.16	960.75
38.18	897.75
38.2	873.75
38.22	869
38.24	880.5
38.26	829.5
38.28	829.75
38.3	820.25
38.32	759
38.34	797.25
38.36	788.25
38.38	786.25
38.4	760
38.42	750.75
38.44	733.75
38.46	725.25
38.48	701.5
38.5	698
38.52	694.5
38.54	667.25
38.56	663.25
38.58	670.75
38.6	640
38.62	653.25
38.64	645
38.66	652
38.68	616.5
38.7	612.75
38.72	628
38.74	618
38.76	621.5
38.78	633.75
38.8	613.75
38.82	624.25
38.84	623.5
38.86	623.75
38.88	608.75
38.9	593.75
38.92	585
38.94	598.25
38.96	607.75
38.98	585.5
39	604.25
39.02	620.5
39.04	597
39.06	600.25
39.08	584.5
39.1	587.5
39.12	593.75
39.14	601.75
39.16	606
39.18	611.25
39.2	625.75
39.22	601.5
39.24	607.5
39.26	586.25
39.28	611.5
39.3	608.5
39.32	637.5
39.34	613.25
39.36	627.5
39.38	602.5
39.4	621.25
39.42	625
39.44	600
39.46	619
39.48	609
39.5	594.75
39.52	624.75
39.54	635.75
39.56	623
39.58	612.75
39.6	619.75
39.62	640
39.64	609.75
39.66	627.25
39.68	634.5
39.7	628
39.72	623.25
39.74	624.25
39.76	641.25
39.78	647
39.8	633.5
39.82	654.25
39.84	643.5
39.86	652.25
39.88	659.75
39.9	650.75
39.92	643.75
39.94	662
39.96	660.25
39.98	659.25
40	670.5
40.02	689.75
40.04	687.5
40.06	712.75
40.08	748.25
40.1	764.5
40.12	779.5
40.14	784.25
40.16	819
40.18	875.5
40.2	846.25
40.22	861.25
40.24	862.5
40.26	858.5
40.28	877.25
40.3	885.25
40.32	865.5
40.34	873.5
40.36	834.75
40.38	885.5
40.4	849.75
40.42	844
40.44	844.25
40.46	799.5
40.48	823
40.5	811.25
40.52	798.25
40.54	791.25
40.56	772.75
40.58	786.75
40.6	804.5
40.62	776.5
40.64	766
40.66	743.75
40.68	752
40.7	747.25
40.72	750.75
40.74	800.75
40.76	775
40.78	797.5
40.8	829.5
40.82	817.25
40.84	842.75
40.86	830.5
40.88	869.25
40.9	876.5
40.92	885.5
40.94	888.25
40.96	909.25
40.98	881.5
41	854.75
41.02	883.75
41.04	868.25
41.06	879.75
41.08	863.25
41.1	837
41.12	833.25
41.14	822.75
41.16	837.5
41.18	829.25
41.2	792
41.22	800
41.24	800.75
41.26	806.5
41.28	793.5
41.3	767.5
41.32	810.5
41.34	773.75
41.36	791.5
41.38	782.75
41.4	788.75
41.42	783.5
41.44	801.5
41.46	791.5
41.48	808
41.5	775.75
41.52	764
41.54	775.25
41.56	776.25
41.58	760
41.6	747.25
41.62	731.25
41.64	726.25
41.66	716.25
41.68	694
41.7	705.25
41.72	680.75
41.74	702.5
41.76	679.75
41.78	669.25
41.8	662.25
41.82	669.5
41.84	691.75
41.86	686.25
41.88	692.5
41.9	720
41.92	711.25
41.94	719.75
41.96	715.25
41.98	767.25
42	772.25
42.02	782
42.04	784.25
42.06	824.25
42.08	818.25
42.1	856.75
42.12	857.75
42.14	903
42.16	922.75
42.18	911.25
42.2	922
42.22	963
42.24	921.25
42.26	959.75
42.28	952.5
42.3	954.25
42.32	954
42.34	964
42.36	954.5
42.38	992.5
42.4	988
42.42	1017.75
42.44	1009.75
42.46	1005
42.48	1025.75
42.5	1045.75
42.52	1061.25
42.54	1064.5
42.56	1092.75
42.58	1069.5
42.6	1042.5
42.62	1038.25
42.64	1033.25
42.66	1012.25
42.68	974.5
42.7	979.75
42.72	922.5
42.74	890
42.76	860
42.78	809.5
42.8	789.25
42.82	764.25
42.84	772
42.86	696.75
42.88	689.75
42.9	663.75
42.92	667
42.94	641
42.96	617
42.98	624
43	632.5
43.02	596.25
43.04	620.5
43.06	570
43.08	605.25
43.1	585.5
43.12	597.75
43.14	579.75
43.16	585.75
43.18	566.25
43.2	559.25
43.22	547.75
43.24	558.5
43.26	553.75
43.28	567.25
43.3	561.25
43.32	564.25
43.34	553.25
43.36	559.25
43.38	561
43.4	539.25
43.42	539.25
43.44	542.5
43.46	526.25
43.48	544
43.5	559.25
43.52	574.75
43.54	543
43.56	539.25
43.58	546.25
43.6	577.75
43.62	560
43.64	567.75
43.66	573.5
43.68	574.5
43.7	559.75
43.72	577.5
43.74	591.75
43.76	592
43.78	576.25
43.8	591.25
43.82	604.75
43.84	610
43.86	618
43.88	617.25
43.9	599
43.92	615.5
43.94	605
43.96	582.25
43.98	623
44	606