File: xrd_output/JA_08-C.TXT
Sample
Comments
Filename	C:\WINDMAX\DATA\USERS\GEO\GEO_ER~1\Pyrenees\BULKMA~1\JA_08-C.raw
Goniometer	Ultima IV In-plane
Attachment	Auto sample changer (10 samples)
ScanningMode	2Theta/Theta
ScanningType	Continuos Scanning
X-Ray	40kV/44mA
DivSlit	2/3deg.
DivH.L.Slit	10mm
SctSlit	2/3deg.
RecSlit	0.3mm
Start	16
Stop	44
Step	0.02
Speed	0.3
Offset	0
16	518.75
16.02	505.25
16.04	529.5
16.06	535.75
16.08	508.5
16.1	510.75
16.12	510
16.14	532.75
16.16	505.5
16.18	519.5
16.2	535.75
16.22	537.75
16.24	522.5
16.26	513.5
16.28	508.25
16.3	519.75
16.32	499.75
16.34	508.25
16.36	521.75
16.38	501.5
16.4	523.5
16.42	507.25
16.44	526
16.46	515.25
16.48	506.5
16.5	506.25
16.52	521.75
16.54	527.5
16.56	509.75
16.58	513.25
16.6	529.25
16.62	519.5
16.64	492.75
16.66	499.25
16.68	508.25
16.7	498.5
16.72	527.5
16.74	526.75
16.76	528.5
16.78	519.5
16.8	507.5
16.82	515.25
16.84	540.25
16.86	547.5
16.88	524.25
16.9	519.75
16.92	516.5
16.94	540.25
16.96	547
16.98	531.75
17	530.25
17.02	531.5
17.04	528.75
17.06	520.75
17.08	535.5
17.1	529
17.12	551.25
17.14	531.5
17.16	521.25
17.18	545
17.2	528.25
17.22	526.25
17.24	523
17.26	513.75
17.28	552
17.3	538.5
17.32	530
17.34	547.5
17.36	539
17.38	544.75
17.4	552.5
17.42	553.5
17.44	553.25
17.46	538
17.48	541.25
17.5	560.25
17.52	548
17.54	561.75
17.56	553.25
17.58	566.75
17.6	547.5
17.62	572
17.64	567.25
17.66	581.75
17.68	594.75
17.7	582.5
17.72	597
17.74	618.75
17.76	621.75
17.78	639.5
17.8	629.25
17.82	625.75
17.84	627.5
17.86	641
17.88	667.75
17.9	627.75
17.92	635.75
17.94	622.5
17.96	629.25
17.98	626.75
18	623
18.02	595
18.04	614.5
18.06	585.25
18.08	592.25
18.1	588.25
18.12	580
18.14	562.75
18.16	559.25
18.18	568.75
18.2	577
18.22	560.25
18.24	556.5
18.26	578.25
18.28	554.25
18.3	567.5
18.32	562.25
18.34	569.75
18.36	552.25
18.38	585.25
18.4	568.75
18.42	568.25
18.44	554.75
18.46	563.5
18.48	549.25
18.5	565.25
18.52	590.25
18.54	579
18.56	596.25
18.58	590.75
18.6	593
18.62	587.5
18.64	614.75
18.66	616.75
18.68	633.75
18.7	627.5
18.72	644.75
18.74	640.5
18.76	700.5
18.78	713.75
18.8	748.75
18.82	777.25
18.84	784
18.86	792.75
18.88	747
18.9	730.25
18.92	710.5
18.94	673.75
18.96	652.5
18.98	596
19	594
19.02	583
19.04	606.75
19.06	599
19.08	568.25
19.1	601
19.12	567.75
19.14	592
19.16	569.75
19.18	585.5
19.2	599.25
19.22	605.75
19.24	584.5
19.26	612
19.28	595.75
19.3	570.75
19.32	583.25
19.34	602.5
19.36	581.5
19.38	591.25
19.4	588
19.42	579.25
19.44	576
19.46	581.75
19.48	584.5
19.5	614.5
19.52	594.75
19.54	617.75
19.56	621.5
19.58	631.5
19.6	643.75
19.62	652.5
19.64	672
19.66	683
19.68	735
19.7	737.25
19.72	763.75
19.74	793.25
19.76	795.5
19.78	829.5
19.8	834.25
19.82	871.25
19.84	843.25
19.86	862
19.88	879.75
19.9	886.5
19.92	836.5
19.94	855.25
19.96	826
19.98	813.5
20	768.75
20.02	719.25
20.04	719.75
20.06	712.5
20.08	658.75
20.1	644.5
20.12	659
20.14	648.5
20.16	664.5
20.18	646.5
20.2	645.5
20.22	631.75
20.24	628.5
20.26	619.75
20.28	615
20.3	615.25
20.32	636.75
20.34	616.5
20.36	608
20.38	610.25
20.4	604
20.42	606.75
20.44	609
20.46	594.5
20.48	597.5
20.5	626
20.52	645.25
20.54	647.5
20.56	643.75
20.58	659.5
20.6	672.75
20.62	692
20.64	725.25
20.66	723.5
20.68	777
20.7	791.75
20.72	847.5
20.74	872.75
20.76	973.25
20.78	1044.5
20.8	1123.75
20.82	1252.25
20.84	1383.25
20.86	1456.5
20.88	1517
20.9	1513
20.92	1446.75
20.94	1290.75
20.96	1215.25
20.98	1058
21	930.75
21.02	834.25
21.04	726
21.06	681
21.08	638.75
21.1	611.5
21.12	567.5
21.14	568.75
21.16	590.75
21.18	581.25
21.2	561.5
21.22	571.5
21.24	561.5
21.26	581.25
21.28	555.25
21.3	577
21.32	597.5
21.34	586.25
21.36	573.75
21.38	560
21.4	561.5
21.42	579.25
21.44	568
21.46	579.75
21.48	561.25
21.5	585.5
21.52	588.75
21.54	577
21.56	578.75
21.58	601.5
21.6	549.75
21.62	568
21.64	572.25
21.66	586.25
21.68	582.5
21.7	584.5
21.72	584
21.74	575.5
21.76	564.25
21.78	573.25
21.8	575
21.82	581.75
21.84	589
21.86	609.5
21.88	601.5
21.9	594.5
21.92	595.5
21.94	606.5
21.96	631.5
21.98	616.5
22	651.75
22.02	633.5
22.04	622.75
22.06	681
22.08	679.5
22.1	686.75
22.12	675.75
22.14	649.75
22.16	637
22.18	607.25
22.2	594.25
22.22	593
22.24	548.25
22.26	575.75
22.28	549.25
22.3	532.25
22.32	547.75
22.34	563
22.36	539
22.38	558.25
22.4	543.5
22.42	546
22.44	542
22.46	546.5
22.48	570.75
22.5	564.25
22.52	548.25
22.54	531.5
22.56	554
22.58	554.5
22.6	573
22.62	562.25
22.64	570.25
22.66	580
22.68	580.5
22.7	587.5
22.72	610.25
22.74	584.75
22.76	597.5
22.78	616.75
22.8	628.75
22.82	634.75
22.84	668
22.86	653.75
22.88	675.5
22.9	684.5
22.92	712.75
22.94	730.75
22.96	750.25
22.98	738
23	816.75
23.02	862
23.04	898.25
23.06	932.5
23.08	1015.5
23.1	1019.25
23.12	1034.5
23.14	1035
23.16	981.25
23.18	910
23.2	856.25
23.22	800.5
23.24	712.25
23.26	676.75
23.28	641.5
23.3	632.5
23.32	595.75
23.34	555
23.36	560
23.38	568.75
23.4	564.75
23.42	560.25
23.44	556
23.46	574.25
23.48	582.75
23.5	566
23.52	586
23.54	584
23.56	590.25
23.58	590
23.6	599
23.62	605.25
23.64	627
23.66	636.75
23.68	641.75
23.7	645.75
23.72	635.25
23.74	657.25
23.76	678.5
23.78	704.5
23.8	752.25
23.82	748.75
23.84	794.5
23.86	821.5
23.88	906
23.9	986
23.92	1027.25
23.94	1157.75
23.96	1285.5
23.98	1446.5
24	1559
24.02	1649.75
24.04	1714.25
24.06	1632
24.08	1630.25
24.1	1512.75
24.12	1348.25
24.14	1133.75
24.16	981.25
24.18	833.75
24.2	803.5
24.22	772.25
24.24	736
24.26	756.75
24.28	733.75
24.3	709.5
24.32	688.25
24.34	670
24.36	667.25
24.38	654.5
24.4	642.5
24.42	658.75
24.44	645
24.46	614.25
24.48	608.75
24.5	589
24.52	589
24.54	616.75
24.56	576
24.58	562.75
24.6	561.25
24.62	567.5
24.64	569.5
24.66	573
24.68	576.75
24.7	550.5
24.72	596.25
24.74	573
24.76	556
24.78	568.75
24.8	588.25
24.82	566.75
24.84	587.75
24.86	566.75
24.88	573
24.9	594
24.92	613.5
24.94	618
24.96	600.5
24.98	615.75
25	610.25
25.02	641.75
25.04	636.25
25.06	675.75
25.08	680.75
25.1	673.75
25.12	703.75
25.14	716.75
25.16	706.75
25.18	734
25.2	713
25.22	737.25
25.24	731.5
25.26	741
25.28	735
25.3	702.75
25.32	701.75
25.34	705.5
25.36	706.25
25.38	707
25.4	656.25
25.42	659.25
25.44	682.75
25.46	681.25
25.48	689
25.5	690
25.52	691.25
25.54	677
25.56	667
25.58	652
25.6	631
25.62	616.75
25.64	621.5
25.66	612.5
25.68	594
25.7	598
25.72	563
25.74	580.5
25.76	565.25
25.78	574.25
25.8	570.75
25.82	548.25
25.84	553
25.86	576.5
25.88	546.75
25.9	563.5
25.92	549.25
25.94	542.75
25.96	554.5
25.98	577.75
26	567.75
26.02	556
26.04	555.75
26.06	559
26.08	568.5
26.1	551.25
26.12	572.25
26.14	581
26.16	597
26.18	586.75
26.2	600.75
26.22	669.5
26.24	657.5
26.26	683.75
26.28	737.75
26.3	751.5
26.32	852.5
26.34	915.75
26.36	988.5
26.38	1098.25
26.4	1289
26.42	1442
26.44	1644.75
26.46	1891.5
26.48	2203.5
26.5	2617.5
26.52	3051.75
26.54	3543.25
26.56	4029
26.58	4638.5
26.6	5131
26.62	5604.75
26.64	5856
26.66	5933.75
26.68	5804
26.7	5492.75
26.72	4841
26.74	4135.75
26.76	3393.5
26.78	2701.5
26.8	2103.5
26.82	1664
26.84	1339.5
26.86	1137
26.88	955.25
26.9	901.25
26.92	839.5
26.94	756.5
26.96	730.75
26.98	728
27	688
27.02	677.25
27.04	662
27.06	662.5
27.08	676.75
27.1	631.5
27.12	630.5
27.14	616.75
27.16	599.5
27.18	619.75
27.2	599.5
27.22	625.75
27.24	601.25
27.26	605.75
27.28	584.25
27.3	571.5
27.32	612.75
27.34	602
27.36	595.75
27.38	617.75
27.4	597
27.42	613.25
27.44	601.5
27.46	611
27.48	619.25
27.5	611.5
27.52	627.5
27.54	618.25
27.56	617.5
27.58	616.75
27.6	646.25
27.62	674.5
27.64	667.25
27.66	719.25
27.68	693.25
27.7	731.5
27.72	760
27.74	778.25
27.76	791.75
27.78	853
27.8	838
27.82	866
27.84	869.25
27.86	894.25
27.88	884
27.9	876
27.92	875.5
27.94	889
27.96	863.5
27.98	842
28	823
28.02	790.75
28.04	761.25
28.06	736
28.08	707.25
28.1	716.75
28.12	689.75
28.14	683.5
28.16	696.75
28.18	684.5
28.2	713.5
28.22	685.5
28.24	657.25
28.26	676.75
28.28	691.75
28.3	668.5
28.32	647.25
28.34	640.75
28.36	628.25
28.38	631.5
28.4	609.25
28.42	602.75
28.44	597.75
28.46	581.75
28.48	557.5
28.5	581.75
28.52	578.5
28.54	566
28.56	587.5
28.58	553.5
28.6	556.25
28.62	556.25
28.64	567
28.66	569.75
28.68	538.75
28.7	538.5
28.72	554.25
28.74	577.25
28.76	544.25
28.78	558.25
28.8	559.25
28.82	583.25
28.84	545.25
28.86	559.75
28.88	579.5
28.9	552.5
28.92	581.25
28.94	583.75
28.96	589
28.98	582
29	591.75
29.02	591.25
29.04	609
29.06	628.75
29.08	644.75
29.1	687
29.12	703.25
29.14	724.5
29.16	777.75
29.18	847.75
29.2	923.75
29.22	1008.5
29.24	1107
29.26	1268.5
29.28	1518.25
29.3	1689.75
29.32	1991.5
29.34	2489.5
29.36	3032.75
29.38	3616.5
29.4	4418.75
29.42	5127.25
29.44	5596.75
29.46	5990.75
29.48	6125.5
29.5	6121.5
29.52	5727.75
29.54	5214.75
29.56	4486.25
29.58	3830.75
29.6	3150
29.62	2511.75
29.64	2068
29.66	1619.75
29.68	1344
29.7	1119.25
29.72	980.25
29.74	893.25
29.76	830
29.78	786
29.8	744.25
29.82	730.5
29.84	705.25
29.86	703.25
29.88	677
29.9	663.5
29.92	666
29.94	669.5
29.96	640.25
29.98	667.25
30	618.25
30.02	620.5
30.04	631
30.06	634.75
30.08	616.25
30.1	616.75
30.12	596
30.14	604.25
30.16	581.75
30.18	596.75
30.2	593.5
30.22	605.75
30.24	592.75
30.26	573.75
30.28	579
30.3	577.5
30.32	580
30.34	580.75
30.36	588.25
30.38	567
30.4	569.75
30.42	559.5
30.44	571
30.46	598
30.48	588.75
30.5	592.75
30.52	608.5
30.54	610
30.56	623.25
30.58	623.75
30.6	647.75
30.62	645.5
30.64	680.75
30.66	671.75
30.68	698
30.7	727
30.72	764.75
30.74	800.25
30.76	836.25
30.78	851.5
30.8	895.25
30.82	907.75
30.84	960
30.86	996.25
30.88	1029.25
30.9	1049.25
30.92	1056.25
30.94	1011
30.96	983.5
30.98	964
31	921.75
31.02	853.25
31.04	828
31.06	797.25
31.08	771.25
31.1	741.5
31.12	684.25
31.14	666.5
31.16	678.25
31.18	664.25
31.2	665.75
31.22	654.25
31.24	671
31.26	635.25
31.28	646
31.3	662.25
31.32	668.25
31.34	630.5
31.36	663.75
31.38	666.5
31.4	697.5
31.42	678.5
31.44	714.25
31.46	715.25
31.48	706.25
31.5	742.5
31.52	733.25
31.54	749.75
31.56	709.5
31.58	706.75
31.6	714
31.62	660.25
31.64	664
31.66	643.5
31.68	627.75
31.7	599.5
31.72	597.5
31.74	569.5
31.76	583.75
31.78	559.25
31.8	571.5
31.82	556
31.84	546
31.86	543
31.88	564.5
31.9	557.75
31.92	534.25
31.94	541.5
31.96	552.5
31.98	566.5
32	545.25
32.02	538
32.04	533.75
32.06	554.75
32.08	574.5
32.1	533.75
32.12	550.25
32.14	545.25
32.16	541.75
32.18	550.75
32.2	547.25
32.22	534.75
32.24	582.75
32.26	550.25
32.28	580.5
32.3	552.5
32.32	578.25
32.34	594.5
32.36	591.5
32.38	647.25
32.4	647.5
32.42	672.5
32.44	697
32.46	695.75
32.48	687.25
32.5	643
32.52	624
32.54	614
32.56	595.5
32.58	574
32.6	563.5
32.62	539.25
32.64	541.25
32.66	525.75
32.68	509
32.7	491.75
32.72	528.75
32.74	534
32.76	537.25
32.78	536
32.8	526.75
32.82	550
32.84	579.5
32.86	562.5
32.88	600
32.9	609
32.92	613
32.94	608.5
32.96	602.25
32.98	621
33	582.75
33.02	592
33.04	571
33.06	564
33.08	560.5
33.1	554.75
33.12	542.75
33.14	533.75
33.16	548
33.18	551.5
33.2	526.75
33.22	541
33.24	531.5
33.26	526.75
33.28	547.5
33.3	529.25
33.32	530.25
33.34	515
33.36	529.75
33.38	540.5
33.4	514.5
33.42	542.75
33.44	530.5
33.46	541
33.48	541.75
33.5	540.5
33.52	553.75
33.54	556.5
33.56	545.25
33.58	559.25
33.6	552
33.62	531.25
33.64	546.25
33.66	534.25
33.68	527.25
33.7	536
33.72	542.5
33.74	546.25
33.76	537.75
33.78	551.75
33.8	550.75
33.82	534.25
33.84	544.75
33.86	527.5
33.88	533
33.9	533.25
33.92	550
33.94	544.25
33.96	536.75
33.98	529.25
34	519.75
34.02	526.5
34.04	527.5
34.06	532.75
34.08	519.25
34.1	514.75
34.12	543.5
34.14	522.25
34.16	518
34.18	517
34.2	510
34.22	521.25
34.24	506.5
34.26	518.5
34.28	541.5
34.3	534
34.32	550.25
34.34	540.5
34.36	560.25
34.38	546.25
34.4	557.75
34.42	589
34.44	595.25
34.46	624.75
34.48	637
34.5	647
34.52	623.25
34.54	653.25
34.56	685
34.58	651.75
34.6	694.25
34.62	692.75
34.64	688.25
34.66	728.75
34.68	713.75
34.7	674
34.72	692.25
34.74	676.5
34.76	687
34.78	680.25
34.8	696.25
34.82	695.5
34.84	728.5
34.86	718.75
34.88	735.5
34.9	762.75
34.92	754.5
34.94	767.5
34.96	811.75
34.98	823.5
35	809
35.02	815
35.04	827.75
35.06	826
35.08	812.5
35.1	782.25
35.12	758.5
35.14	758
35.16	733
35.18	751.25
35.2	697
35.22	676.75
35.24	654.75
35.26	664.75
35.28	670.5
35.3	625
35.32	669.75
35.34	633.75
35.36	664
35.38	674.25
35.4	680.25
35.42	726.75
35.44	744.5
35.46	793.5
35.48	817
35.5	876
35.52	878
35.54	872
35.56	856.25
35.58	825.5
35.6	757.25
35.62	748
35.64	680.25
35.66	657
35.68	632.5
35.7	633.75
35.72	618
35.74	607
35.76	581.5
35.78	593.25
35.8	608.75
35.82	618.5
35.84	659
35.86	658.25
35.88	699.75
35.9	757.75
35.92	814.25
35.94	915
35.96	987.25
35.98	1057
36	1105.5
36.02	1185.5
36.04	1218.25
36.06	1212
36.08	1164.25
36.1	1164.5
36.12	1098.25
36.14	1036.5
36.16	947.5
36.18	867.25
36.2	822.25
36.22	795.25
36.24	741.75
36.26	690
36.28	689.25
36.3	655.25
36.32	652.25
36.34	618
36.36	627.75
36.38	655
36.4	648.5
36.42	664
36.44	705.75
36.46	731
36.48	769.75
36.5	828.75
36.52	881
36.54	887.75
36.56	928.5
36.58	928
36.6	921.75
36.62	879
36.64	830
36.66	830.25
36.68	741
36.7	727.25
36.72	716.25
36.74	686.75
36.76	662.75
36.78	636.5
36.8	616.25
36.82	614.75
36.84	617.5
36.86	608
36.88	615
36.9	596
36.92	601.75
36.94	593
36.96	594.75
36.98	574.5
37	594.75
37.02	588
37.04	606.75
37.06	597.25
37.08	574.75
37.1	540.75
37.12	557
37.14	562.25
37.16	590.75
37.18	578.75
37.2	584.25
37.22	569.25
37.24	603
37.26	589
37.28	581.5
37.3	597.5
37.32	598
37.34	610
37.36	610.75
37.38	613.25
37.4	628.5
37.42	598
37.44	618.5
37.46	610.75
37.48	610.5
37.5	630.25
37.52	616
37.54	608.25
37.56	621.5
37.58	602.5
37.6	637.25
37.62	612.25
37.64	615.5
37.66	626.5
37.68	625
37.7	623
37.72	618
37.74	636.5
37.76	619
37.78	628
37.8	600.75
37.82	621
37.84	616.5
37.86	591
37.88	592.5
37.9	568.5
37.92	538.75
37.94	573.5
37.96	560.5
37.98	545
38	562.75
38.02	547.25
38.04	552.75
38.06	538.5
38.08	541
38.1	537.75
38.12	584.75
38.14	570.5
38.16	560.5
38.18	558
38.2	570
38.22	551.5
38.24	529
38.26	554
38.28	535.5
38.3	507
38.32	512.25
38.34	490.75
38.36	486.75
38.38	483
38.4	506
38.42	490.75
38.44	491.25
38.46	504.75
38.48	492.25
38.5	465.25
38.52	498.5
38.54	497.5
38.56	490.25
38.58	488
38.6	499.25
38.62	485.25
38.64	523
38.66	507
38.68	514.5
38.7	532.5
38.72	507
38.74	560.5
38.76	554.5
38.78	589
38.8	636.75
38.82	672.75
38.84	713
38.86	697.5
38.88	702.75
38.9	713
38.92	706.75
38.94	679.5
38.96	654.5
38.98	623.75
39	599.25
39.02	582.5
39.04	562.75
39.06	549
39.08	527
39.1	512.25
39.12	513
39.14	525.25
39.16	558
39.18	565.5
39.2	566.5
39.22	586.5
39.24	601
39.26	642.75
39.28	694.5
39.3	732
39.32	795.75
39.34	872
39.36	1008.5
39.38	1139.75
39.4	1335.5
39.42	1491.25
39.44	1618.75
39.46	1724
39.48	1847.25
39.5	1817.75
39.52	1762.25
39.54	1687.75
39.56	1604.75
39.58	1499.5
39.6	1319.5
39.62	1230
39.64	1054.5
39.66	970
39.68	852
39.7	770.25
39.72	709.75
39.74	655.5
39.76	626.5
39.78	608.5
39.8	573.75
39.82	569.25
39.84	544
39.86	531
39.88	542.75
39.9	548.25
39.92	520.5
39.94	537.25
39.96	542.75
39.98	549.5
40	533
40.02	564.75
40.04	534.5
40.06	543.75
40.08	557
40.1	546
40.12	544.5
40.14	558.75
40.16	576
40.18	562
40.2	599.5
40.22	628.5
40.24	651.5
40.26	651
40.28	673
40.3	666.25
40.32	687
40.34	663
40.36	695
40.38	638.25
40.4	627
40.42	601.5
40.44	618
40.46	566.75
40.48	542.25
40.5	540.75
40.52	539
40.54	522.75
40.56	522.75
40.58	510.5
40.6	512.75
40.62	511
40.64	489.75
40.66	518.5
40.68	514
40.7	533
40.72	529.75
40.74	526.75
40.76	542.75
40.78	529.25
40.8	560
40.82	540
40.84	555.75
40.86	562.75
40.88	571.75
40.9	560.25
40.92	569.75
40.94	592
40.96	615.75
40.98	628.75
41	617
41.02	617.5
41.04	660
41.06	648.75
41.08	676.75
41.1	661.25
41.12	647.5
41.14	666.5
41.16	653.25
41.18	655.75
41.2	650.25
41.22	632.5
41.24	593.25
41.26	604.5
41.28	593.25
41.3	571.5
41.32	558.25
41.34	525.25
41.36	510.25
41.38	529
41.4	516.25
41.42	507.25
41.44	490.75
41.46	496
41.48	497.5
41.5	480.25
41.52	486.25
41.54	481
41.56	499.25
41.58	467
41.6	475.25
41.62	479.25
41.64	466.75
41.66	476.75
41.68	480.25
41.7	465.75
41.72	473.5
41.74	473.5
41.76	481.5
41.78	455.5
41.8	474.5
41.82	465.75
41.84	493.5
41.86	496.25
41.88	491
41.9	499.75
41.92	498.5
41.94	508
41.96	504
41.98	486.75
42	501.75
42.02	497.5
42.04	516.5
42.06	503.25
42.08	515
42.1	523.75
42.12	524
42.14	508
42.16	530.75
42.18	516.75
42.2	536
42.22	530.5
42.24	577
42.26	563.25
42.28	582.5
42.3	615.25
42.32	646.75
42.34	635.25
42.36	690.75
42.38	766
42.4	796.25
42.42	816
42.44	859
42.46	832.25
42.48	844.5
42.5	813.5
42.52	812.25
42.54	826.5
42.56	756
42.58	734.75
42.6	725.75
42.62	696.5
42.64	724
42.66	706.5
42.68	725.5
42.7	723
42.72	735
42.74	739
42.76	707.75
42.78	710.75
42.8	664.75
42.82	668.75
42.84	650.25
42.86	635
42.88	588
42.9	600
42.92	600.5
42.94	583.75
42.96	562
42.98	582.5
43	588.25
43.02	567.75
43.04	647.75
43.06	676.5
43.08	738.75
43.1	781.25
43.12	882.25
43.14	964.75
43.16	1077.5
43.18	1203
43.2	1277
43.22	1302.75
43.24	1359.25
43.26	1360.75
43.28	1344.5
43.3	1264
43.32	1202.75
43.34	1170
43.36	1070.5
43.38	993.5
43.4	925.5
43.42	855
43.44	810.5
43.46	728.75
43.48	729.25
43.5	702
43.52	704.75
43.54	718.75
43.56	760
43.58	735.75
43.6	745
43.62	754
43.64	738.25
43.66	728.25
43.68	707.25
43.7	704.75
43.72	668
43.74	644
43.76	630
43.78	581.75
43.8	592.25
43.82	540.5
43.84	555.5
43.86	522.5
43.88	519.75
43.9	536.25
43.92	512.75
43.94	506.5
43.96	490
43.98	504.75
44	509.75