File: xrd_output/JA_08-M.TXT
Sample
Comments
Filename	C:\WINDMAX\DATA\USERS\GEO\GEO_ER~1\Pyrenees\BULKMA~1\JA_08-M.raw
Goniometer	Ultima IV In-plane
Attachment	Auto sample changer (10 samples)
ScanningMode	2Theta/Theta
ScanningType	Continuos Scanning
X-Ray	40kV/44mA
DivSlit	2/3deg.
DivH.L.Slit	10mm
SctSlit	2/3deg.
RecSlit	0.3mm
Start	16
Stop	44
Step	0.02
Speed	0.3
Offset	0
16	948.75
16.02	927.5
16.04	931.5
16.06	925.25
16.08	952.75
16.1	905.25
16.12	905
16.14	920
16.16	910.75
16.18	928
16.2	901.25
16.22	915.25
16.24	914.75
16.26	888
16.28	901
16.3	909.5
16.32	930.25
16.34	868.75
16.36	900.5
16.38	909.25
16.4	898.5
16.42	892
16.44	884
16.46	903
16.48	898
16.5	897
16.52	900.25
16.54	913
16.56	931.75
16.58	885
16.6	901
16.62	919.5
16.64	938.75
16.66	909
16.68	908
16.7	928.75
16.72	907
16.74	945.25
16.76	923
16.78	939.5
16.8	954.75
16.82	926.75
16.84	971
16.86	954
16.88	942.25
16.9	974.75
16.92	954.25
16.94	969
16.96	954.75
16.98	942.75
17	929.25
17.02	972.5
17.04	956.75
17.06	938
17.08	965.25
17.1	944.25
17.12	940.25
17.14	946
17.16	950.5
17.18	974.25
17.2	943.5
17.22	969.75
17.24	962.75
17.26	986
17.28	1003.25
17.3	972.5
17.32	987.75
17.34	998
17.36	981.5
17.38	1005
17.4	1024.75
17.42	1021.75
17.44	1012.25
17.46	1017.25
17.48	1070
17.5	1106.25
17.52	1066.25
17.54	1095.75
17.56	1122.75
17.58	1134.25
17.6	1134
17.62	1196.75
17.64	1191.75
17.66	1230
17.68	1255.25
17.7	1266
17.72	1322.75
17.74	1321
17.76	1348.75
17.78	1343.75
17.8	1315
17.82	1331
17.84	1306.5
17.86	1307
17.88	1296.5
17.9	1243.25
17.92	1253.75
17.94	1233
17.96	1210
17.98	1195.25
18	1191.25
18.02	1124.25
18.04	1105.75
18.06	1131.5
18.08	1096.5
18.1	1085
18.12	1064.25
18.14	1055.25
18.16	1081.5
18.18	1054.75
18.2	1038
18.22	1070.75
18.24	1038.5
18.26	1040.25
18.28	1041
18.3	1037.5
18.32	1021.5
18.34	1042.5
18.36	1028.5
18.38	1070.75
18.4	1040.75
18.42	1054.5
18.44	1072.25
18.46	1077.25
18.48	1062.75
18.5	1070.25
18.52	1090
18.54	1100.25
18.56	1073.25
18.58	1092.25
18.6	1119.5
18.62	1155.75
18.64	1130.5
18.66	1161.5
18.68	1197
18.7	1212.5
18.72	1236.75
18.74	1217.75
18.76	1278.75
18.78	1284.25
18.8	1277.5
18.82	1262.75
18.84	1257.75
18.86	1195.25
18.88	1163
18.9	1125.25
18.92	1106.25
18.94	1097.25
18.96	1104.5
18.98	1048.25
19	1063.25
19.02	1071.75
19.04	1051.75
19.06	1041.5
19.08	1055
19.1	1050.25
19.12	1067.25
19.14	1060
19.16	1064.25
19.18	1082
19.2	1086.75
19.22	1077
19.24	1065.5
19.26	1075.5
19.28	1108.5
19.3	1119.75
19.32	1082.75
19.34	1126.75
19.36	1112.25
19.38	1108.25
19.4	1129.75
19.42	1112.75
19.44	1143.5
19.46	1104.75
19.48	1186.25
19.5	1164
19.52	1230.5
19.54	1258
19.56	1293.5
19.58	1298.25
19.6	1348.75
19.62	1363.25
19.64	1473
19.66	1549.75
19.68	1588.75
19.7	1664.5
19.72	1723.25
19.74	1808.25
19.76	1780
19.78	1871.75
19.8	1839.5
19.82	1869.75
19.84	1862.25
19.86	1894
19.88	1814.75
19.9	1803.5
19.92	1756
19.94	1675.5
19.96	1592
19.98	1559.5
20	1500.25
20.02	1447.25
20.04	1397.75
20.06	1357.75
20.08	1322.25
20.1	1285.75
20.12	1267.75
20.14	1278.5
20.16	1265.75
20.18	1219.5
20.2	1234.75
20.22	1207.5
20.24	1192.25
20.26	1211
20.28	1160.25
20.3	1171
20.32	1166.25
20.34	1154.5
20.36	1214.25
20.38	1181
20.4	1181.5
20.42	1160.75
20.44	1202
20.46	1159.5
20.48	1211.5
20.5	1209.25
20.52	1205
20.54	1212
20.56	1249.5
20.58	1264
20.6	1267.75
20.62	1327.25
20.64	1310.5
20.66	1338.5
20.68	1356.75
20.7	1420.75
20.72	1457.5
20.74	1515.75
20.76	1573
20.78	1642.75
20.8	1667.75
20.82	1786.75
20.84	1801
20.86	1791.25
20.88	1712.5
20.9	1620.75
20.92	1571.75
20.94	1467.5
20.96	1365.75
20.98	1309
21	1236.25
21.02	1218.75
21.04	1139.25
21.06	1131
21.08	1115.5
21.1	1099
21.12	1053.25
21.14	1074.75
21.16	1062.5
21.18	1083
21.2	1056
21.22	1074.75
21.24	1077.25
21.26	1051
21.28	1054.25
21.3	1076.75
21.32	1060.5
21.34	1062.25
21.36	1069.5
21.38	1081.5
21.4	1113
21.42	1090.75
21.44	1101.75
21.46	1082
21.48	1093.75
21.5	1136
21.52	1108.25
21.54	1086.25
21.56	1103
21.58	1104.5
21.6	1119.5
21.62	1102.25
21.64	1103.75
21.66	1094.25
21.68	1119.25
21.7	1076.25
21.72	1098.75
21.74	1095.75
21.76	1089.5
21.78	1086.25
21.8	1072.75
21.82	1076.75
21.84	1083.5
21.86	1055.5
21.88	1081.5
21.9	1049.25
21.92	1065
21.94	1069.5
21.96	1058.25
21.98	1076
22	1075.25
22.02	1120.25
22.04	1089.5
22.06	1107
22.08	1112.75
22.1	1083.5
22.12	1063.75
22.14	1076.5
22.16	1054
22.18	1063.75
22.2	1056
22.22	1047.75
22.24	1043
22.26	1041
22.28	1082.5
22.3	1038.5
22.32	1063.5
22.34	1058
22.36	1058.5
22.38	1059.5
22.4	1077.25
22.42	1071
22.44	1072
22.46	1086.25
22.48	1077
22.5	1109.75
22.52	1135.75
22.54	1119.5
22.56	1137.25
22.58	1161.75
22.6	1132.75
22.62	1156.5
22.64	1197.75
22.66	1194
22.68	1204.25
22.7	1216
22.72	1217
22.74	1237.25
22.76	1214.25
22.78	1292.75
22.8	1281.5
22.82	1275.25
22.84	1293.75
22.86	1312.75
22.88	1309.25
22.9	1358
22.92	1370.25
22.94	1361
22.96	1391.75
22.98	1402.75
23	1399.5
23.02	1424.25
23.04	1412.25
23.06	1382.25
23.08	1403.25
23.1	1354.25
23.12	1312.75
23.14	1289.25
23.16	1228
23.18	1219.25
23.2	1179.75
23.22	1190.75
23.24	1116.25
23.26	1120.25
23.28	1103
23.3	1096.5
23.32	1084.75
23.34	1089.25
23.36	1085.25
23.38	1089.5
23.4	1105
23.42	1040.5
23.44	1109.75
23.46	1096
23.48	1121
23.5	1109.75
23.52	1135.5
23.54	1149.75
23.56	1128.25
23.58	1168.75
23.6	1172
23.62	1163.75
23.64	1207.5
23.66	1254.25
23.68	1222.5
23.7	1239.75
23.72	1324.5
23.74	1339.5
23.76	1371.5
23.78	1422.5
23.8	1442.5
23.82	1452.75
23.84	1489.25
23.86	1592.25
23.88	1666.25
23.9	1712.5
23.92	1813
23.94	1876.75
23.96	1977.5
23.98	2021.75
24	2083.75
24.02	2031.25
24.04	1991.25
24.06	1881
24.08	1782
24.1	1670.5
24.12	1572.25
24.14	1471.5
24.16	1457.75
24.18	1401.25
24.2	1376.75
24.22	1315.75
24.24	1292
24.26	1255.25
24.28	1246.25
24.3	1222.5
24.32	1223.75
24.34	1213.5
24.36	1196.75
24.38	1206.75
24.4	1178
24.42	1173.5
24.44	1174.75
24.46	1134.5
24.48	1160.25
24.5	1131
24.52	1166.5
24.54	1140.5
24.56	1153.25
24.58	1153.25
24.6	1110.75
24.62	1156.5
24.64	1142.75
24.66	1164
24.68	1151.5
24.7	1186.75
24.72	1163.25
24.74	1178
24.76	1183.25
24.78	1180.75
24.8	1195
24.82	1218.75
24.84	1237.5
24.86	1233.5
24.88	1232.75
24.9	1280.5
24.92	1300.75
24.94	1320.25
24.96	1327
24.98	1346.5
25	1387.5
25.02	1416
25.04	1479.25
25.06	1507
25.08	1556.75
25.1	1582
25.12	1568.5
25.14	1574.5
25.16	1598.5
25.18	1620.75
25.2	1530.75
25.22	1560.5
25.24	1497
25.26	1499.25
25.28	1474.75
25.3	1465.25
25.32	1473.25
25.34	1449.75
25.36	1431.5
25.38	1449
25.4	1408.5
25.42	1403
25.44	1427.75
25.46	1378.25
25.48	1398.25
25.5	1378.75
25.52	1382
25.54	1346
25.56	1291.75
25.58	1290.25
25.6	1272.5
25.62	1236.75
25.64	1254.25
25.66	1230.25
25.68	1204
25.7	1203
25.72	1154.25
25.74	1164
25.76	1140.5
25.78	1152
25.8	1121.75
25.82	1128.25
25.84	1143.5
25.86	1128.25
25.88	1121.5
25.9	1131
25.92	1100.5
25.94	1064.25
25.96	1095
25.98	1112.25
26	1080.25
26.02	1119.25
26.04	1122.75
26.06	1119.75
26.08	1120
26.1	1127
26.12	1164
26.14	1196.5
26.16	1193.5
26.18	1194.75
26.2	1257.75
26.22	1287
26.24	1286.25
26.26	1341
26.28	1390.75
26.3	1447
26.32	1549.5
26.34	1665.25
26.36	1767
26.38	1908.75
26.4	2007
26.42	2261.75
26.44	2505
26.46	2764.5
26.48	3059.25
26.5	3333
26.52	3742
26.54	4115.5
26.56	4573
26.58	4956.25
26.6	5203.25
26.62	5333.75
26.64	5317.25
26.66	5195
26.68	4868.25
26.7	4502.5
26.72	3985.5
26.74	3597.5
26.76	3129.75
26.78	2747.5
26.8	2455.5
26.82	2253.75
26.84	1989
26.86	1913.25
26.88	1763.75
26.9	1686.5
26.92	1629.5
26.94	1546
26.96	1457.25
26.98	1436.25
27	1422
27.02	1372.75
27.04	1340.25
27.06	1296.5
27.08	1255.25
27.1	1269.75
27.12	1246.25
27.14	1227.25
27.16	1206.5
27.18	1200.25
27.2	1206.25
27.22	1169.75
27.24	1184
27.26	1177.75
27.28	1190.25
27.3	1188.75
27.32	1183
27.34	1179.25
27.36	1144.75
27.38	1162.5
27.4	1178
27.42	1193
27.44	1178.5
27.46	1172.25
27.48	1207.75
27.5	1192.5
27.52	1161.5
27.54	1202.75
27.56	1208.25
27.58	1236.5
27.6	1236.75
27.62	1252.75
27.64	1258.75
27.66	1244.25
27.68	1319.25
27.7	1342.25
27.72	1344
27.74	1362.5
27.76	1388.25
27.78	1379
27.8	1419
27.82	1446
27.84	1454.25
27.86	1412.5
27.88	1433.25
27.9	1422.25
27.92	1397.5
27.94	1385.75
27.96	1386
27.98	1340
28	1314.75
28.02	1302.25
28.04	1264.5
28.06	1266.5
28.08	1247.5
28.1	1208
28.12	1217.75
28.14	1218.25
28.16	1162.75
28.18	1185
28.2	1176
28.22	1176.5
28.24	1128.75
28.26	1169.75
28.28	1130.75
28.3	1121.75
28.32	1128.75
28.34	1102.75
28.36	1074.25
28.38	1113
28.4	1084.5
28.42	1097.5
28.44	1077.5
28.46	1080
28.48	1107.5
28.5	1088.5
28.52	1108.75
28.54	1072
28.56	1078.75
28.58	1059.75
28.6	1053.75
28.62	1056.25
28.64	1050.75
28.66	1051
28.68	1070.25
28.7	1057.25
28.72	1074
28.74	1069.75
28.76	1071.25
28.78	1095.75
28.8	1058.5
28.82	1073
28.84	1079.5
28.86	1077.25
28.88	1068.5
28.9	1085.75
28.92	1073.75
28.94	1099.5
28.96	1090.25
28.98	1115.25
29	1136.5
29.02	1115.75
29.04	1158
29.06	1168.75
29.08	1150.5
29.1	1192.5
29.12	1210.25
29.14	1246.5
29.16	1309.25
29.18	1368.75
29.2	1429
29.22	1543.5
29.24	1681.25
29.26	1812.75
29.28	2002.25
29.3	2165.75
29.32	2472
29.34	2773
29.36	2970.5
29.38	3228.75
29.4	3424.5
29.42	3510
29.44	3459.75
29.46	3412.25
29.48	3307.25
29.5	2995.5
29.52	2728
29.54	2476.75
29.56	2198.5
29.58	1993.5
29.6	1820.25
29.62	1656.75
29.64	1535
29.66	1463
29.68	1396
29.7	1351.75
29.72	1325.5
29.74	1298
29.76	1307.5
29.78	1287.75
29.8	1288.5
29.82	1262.75
29.84	1277.25
29.86	1269
29.88	1292.75
29.9	1244
29.92	1237.75
29.94	1198.75
29.96	1252
29.98	1156.5
30	1215.5
30.02	1168.5
30.04	1148.5
30.06	1163.75
30.08	1115.25
30.1	1106.75
30.12	1096.25
30.14	1096.75
30.16	1088
30.18	1053.25
30.2	1055
30.22	1074.5
30.24	1077.25
30.26	1015.75
30.28	1047
30.3	1034.25
30.32	1009
30.34	1010.75
30.36	1052.75
30.38	1055.5
30.4	1047.25
30.42	1036
30.44	1034
30.46	1026
30.48	1012.75
30.5	1029.5
30.52	1035.25
30.54	1058.75
30.56	1029.75
30.58	1019.75
30.6	1036.25
30.62	1055
30.64	1037.75
30.66	1069.5
30.68	1086.5
30.7	1114.5
30.72	1123.5
30.74	1113.25
30.76	1163.5
30.78	1181
30.8	1170.25
30.82	1162.75
30.84	1219.5
30.86	1228.5
30.88	1229.25
30.9	1203.25
30.92	1232.5
30.94	1238.75
30.96	1229.25
30.98	1218.75
31	1256.5
31.02	1235.75
31.04	1243.75
31.06	1225.25
31.08	1222.5
31.1	1272.25
31.12	1273.75
31.14	1284.5
31.16	1265.75
31.18	1288.25
31.2	1312
31.22	1296.25
31.24	1267
31.26	1323.75
31.28	1357.5
31.3	1329.25
31.32	1310
31.34	1278.5
31.36	1296
31.38	1290
31.4	1287.5
31.42	1326.5
31.44	1319.5
31.46	1326.25
31.48	1310.25
31.5	1290.75
31.52	1312.75
31.54	1270.25
31.56	1235.5
31.58	1246.75
31.6	1195.25
31.62	1229.5
31.64	1180.75
31.66	1131.5
31.68	1145.25
31.7	1111.75
31.72	1119.25
31.74	1096.5
31.76	1101
31.78	1109.5
31.8	1040
31.82	1090.25
31.84	1070
31.86	1090.75
31.88	1097.5
31.9	1097
31.92	1065.5
31.94	1089.5
31.96	1099.25
31.98	1120.75
32	1113.25
32.02	1118.5
32.04	1083
32.06	1087
32.08	1113
32.1	1077.5
32.12	1066.25
32.14	1079
32.16	1048.25
32.18	1058.25
32.2	1044.25
32.22	1051.5
32.24	1042.5
32.26	1039.75
32.28	1058.75
32.3	1076
32.32	1026.5
32.34	1029.5
32.36	1021
32.38	1030.25
32.4	1054.25
32.42	1056.5
32.44	1012
32.46	988.75
32.48	1006
32.5	994.75
32.52	981.5
32.54	979
32.56	965
32.58	957.25
32.6	981.75
32.62	960.25
32.64	961
32.66	989.75
32.68	940.75
32.7	955.75
32.72	961
32.74	964.5
32.76	1000.5
32.78	964.5
32.8	982
32.82	1041.25
32.84	1015
32.86	993.5
32.88	1013.5
32.9	1016.25
32.92	1004.25
32.94	1006.5
32.96	997.25
32.98	1015.25
33	998.75
33.02	989.25
33.04	980.5
33.06	1011.5
33.08	1005.75
33.1	987.5
33.12	968.5
33.14	989.25
33.16	990.25
33.18	956.5
33.2	970
33.22	967.25
33.24	959.5
33.26	974.25
33.28	963.25
33.3	969.5
33.32	943.5
33.34	991.25
33.36	968.25
33.38	970.75
33.4	977.5
33.42	962.75
33.44	973.25
33.46	993.25
33.48	975.25
33.5	973.25
33.52	1004
33.54	977.5
33.56	974.25
33.58	993.5
33.6	965
33.62	999.25
33.64	1019.25
33.66	993.5
33.68	997.5
33.7	982.25
33.72	998
33.74	1000.5
33.76	1036.75
33.78	1015.5
33.8	1027.25
33.82	1009.25
33.84	998.25
33.86	1011.25
33.88	1013.5
33.9	1012.25
33.92	1026.75
33.94	1028
33.96	985.75
33.98	1049
34	1017.5
34.02	981.75
34.04	948.75
34.06	1001
34.08	997.75
34.1	958.5
34.12	1009
34.14	996.75
34.16	993
34.18	991
34.2	983.75
34.22	993.25
34.24	1009.5
34.26	1008.25
34.28	1066.5
34.3	1070.75
34.32	1056.75
34.34	1107.5
34.36	1097.5
34.38	1128.5
34.4	1175
34.42	1212.75
34.44	1243.25
34.46	1286.5
34.48	1300.5
34.5	1324.75
34.52	1336.5
34.54	1372
34.56	1368.5
34.58	1403.5
34.6	1438.25
34.62	1425.5
34.64	1423.5
34.66	1438
34.68	1419
34.7	1456.75
34.72	1455
34.74	1440.5
34.76	1456.25
34.78	1471.75
34.8	1509
34.82	1542
34.84	1551.75
34.86	1600.5
34.88	1625.25
34.9	1694
34.92	1698.5
34.94	1713.75
34.96	1715.75
34.98	1738.75
35	1713.5
35.02	1713
35.04	1710
35.06	1646.5
35.08	1606.5
35.1	1520.5
35.12	1533.25
35.14	1476.25
35.16	1434
35.18	1369.25
35.2	1332.25
35.22	1299
35.24	1242
35.26	1234.75
35.28	1185.25
35.3	1193.5
35.32	1183.25
35.34	1182.75
35.36	1189.25
35.38	1189.5
35.4	1174.5
35.42	1185.5
35.44	1188
35.46	1178.25
35.48	1196.25
35.5	1177.75
35.52	1141
35.54	1143.25
35.56	1141
35.58	1097.25
35.6	1092
35.62	1073.5
35.64	1074.75
35.66	1039.5
35.68	1064
35.7	1060.25
35.72	1020.25
35.74	1061.75
35.76	1061.5
35.78	1090.25
35.8	1085.75
35.82	1100.25
35.84	1146.75
35.86	1145
35.88	1169.25
35.9	1199.25
35.92	1265.5
35.94	1291
35.96	1332.5
35.98	1321.25
36	1345.5
36.02	1365.25
36.04	1334.5
36.06	1330.25
36.08	1296
36.1	1278
36.12	1267.25
36.14	1213.75
36.16	1196.5
36.18	1178.25
36.2	1121.75
36.22	1147.5
36.24	1118.25
36.26	1121.75
36.28	1099.75
36.3	1136
36.32	1115.5
36.34	1116
36.36	1174
36.38	1174.25
36.4	1198.75
36.42	1240.75
36.44	1271.5
36.46	1298.5
36.48	1350.75
36.5	1344.75
36.52	1395.25
36.54	1364
36.56	1403.25
36.58	1397
36.6	1356.5
36.62	1332.5
36.64	1330.5
36.66	1289
36.68	1238.75
36.7	1205.25
36.72	1201.5
36.74	1181.25
36.76	1149
36.78	1118.75
36.8	1158
36.82	1151.5
36.84	1101.5
36.86	1126.5
36.88	1101.25
36.9	1113
36.92	1079.5
36.94	1074
36.96	1097.75
36.98	1054.25
37	1046.25
37.02	1034.5
37.04	1035.5
37.06	1022
37.08	1064
37.1	1087.75
37.12	1071.5
37.14	1066.5
37.16	1057.25
37.18	1053.5
37.2	1078.5
37.22	1081.25
37.24	1064.75
37.26	1052
37.28	1125
37.3	1121
37.32	1118.75
37.34	1086.25
37.36	1124
37.38	1116.25
37.4	1090.75
37.42	1141
37.44	1158.25
37.46	1211.75
37.48	1204.25
37.5	1215.75
37.52	1204
37.54	1210.5
37.56	1207.25
37.58	1244
37.6	1218.25
37.62	1291.25
37.64	1233.75
37.66	1261
37.68	1247.25
37.7	1266.5
37.72	1277.25
37.74	1264.5
37.76	1249
37.78	1245.25
37.8	1201.25
37.82	1193.5
37.84	1170.75
37.86	1155.75
37.88	1170.5
37.9	1109.5
37.92	1145.5
37.94	1107.75
37.96	1094
37.98	1076.75
38	1052.5
38.02	1069.25
38.04	1075
38.06	1025
38.08	1046.25
38.1	1036.75
38.12	1035.5
38.14	1017
38.16	1008.5
38.18	1006.75
38.2	987.25
38.22	1000.5
38.24	954.5
38.26	946.75
38.28	937
38.3	947
38.32	937.75
38.34	935.75
38.36	925.75
38.38	930
38.4	900.75
38.42	949.5
38.44	927
38.46	863.5
38.48	914.75
38.5	885.75
38.52	887.5
38.54	922.5
38.56	909.75
38.58	892
38.6	884
38.62	901.25
38.64	904.5
38.66	915.5
38.68	926.5
38.7	917.25
38.72	942.25
38.74	937
38.76	988.25
38.78	963.5
38.8	965
38.82	941.25
38.84	950.25
38.86	961.5
38.88	960
38.9	965.75
38.92	942.75
38.94	962.75
38.96	916
38.98	943.5
39	913.75
39.02	915
39.04	915.75
39.06	911.25
39.08	909
39.1	922
39.12	916.5
39.14	922.5
39.16	977.75
39.18	975.5
39.2	977.25
39.22	1009.5
39.24	1017.25
39.26	1028.5
39.28	1091.25
39.3	1138.75
39.32	1198.25
39.34	1264
39.36	1301.5
39.38	1408.25
39.4	1478.25
39.42	1517
39.44	1524.25
39.46	1549.25
39.48	1566.5
39.5	1519
39.52	1452.25
39.54	1447.75
39.56	1341
39.58	1283.25
39.6	1224.25
39.62	1198.5
39.64	1114
39.66	1065.25
39.68	1044.5
39.7	1008.25
39.72	1006
39.74	984.25
39.76	988
39.78	989.5
39.8	999
39.82	989
39.84	978.5
39.86	1015
39.88	984.5
39.9	990.5
39.92	1007
39.94	1028.75
39.96	983.75
39.98	1022
40	1024
40.02	1015
40.04	1030.25
40.06	1032.25
40.08	1018
40.1	1040.75
40.12	1031.5
40.14	1040.75
40.16	1042
40.18	1085.25
40.2	1079
40.22	1064.75
40.24	1078
40.26	1088
40.28	1043.5
40.3	1071.25
40.32	1104.25
40.34	1073
40.36	1063
40.38	1074
40.4	1008.75
40.42	988
40.44	987.5
40.46	993.25
40.48	994.25
40.5	947.75
40.52	954
40.54	978
40.56	986
40.58	991.5
40.6	986.75
40.62	984.5
40.64	985.75
40.66	1007.5
40.68	1007.75
40.7	1033
40.72	1018.5
40.74	1016.25
40.76	1017.5
40.78	998.25
40.8	1027.5
40.82	1021.75
40.84	1034
40.86	1045
40.88	1031.75
40.9	1016.25
40.92	1015
40.94	1030.75
40.96	1031
40.98	1064
41	1016.5
41.02	1040.75
41.04	1013.25
41.06	1020.75
41.08	1047
41.1	1013.75
41.12	1030.75
41.14	1028.75
41.16	1015.25
41.18	1034.5
41.2	1012.75
41.22	1006.5
41.24	1005
41.26	996
41.28	1011.25
41.3	987.75
41.32	972.75
41.34	932.25
41.36	956.75
41.38	948
41.4	969.5
41.42	936
41.44	940.75
41.46	909.25
41.48	921
41.5	917
41.52	926.25
41.54	912.75
41.56	924.25
41.58	912.5
41.6	914.75
41.62	922
41.64	917.25
41.66	926.25
41.68	912
41.7	906.25
41.72	921.75
41.74	908.25
41.76	946.25
41.78	930
41.8	956.75
41.82	945
41.84	958.25
41.86	969
41.88	960
41.9	986
41.92	967.5
41.94	974.5
41.96	983
41.98	1001
42	983.5
42.02	1010.5
42.04	980.75
42.06	1016.75
42.08	998.75
42.1	1012.75
42.12	1030.25
42.14	1033
42.16	1041.25
42.18	1043.25
42.2	1052.75
42.22	1061.5
42.24	1060.5
42.26	1089
42.28	1118.5
42.3	1110.25
42.32	1153.5
42.34	1174.75
42.36	1157.25
42.38	1202
42.4	1250.5
42.42	1207.75
42.44	1234
42.46	1231
42.48	1246
42.5	1184.75
42.52	1178.25
42.54	1170.25
42.56	1118.5
42.58	1108.75
42.6	1102
42.62	1077.75
42.64	1052
42.66	1099.5
42.68	1042.75
42.7	1040.5
42.72	1020
42.74	1027
42.76	1004
42.78	1010.25
42.8	985.25
42.82	975.5
42.84	941
42.86	945.5
42.88	968.75
42.9	925.5
42.92	937.75
42.94	945
42.96	946
42.98	1002.75
43	965.5
43.02	1020
43.04	1055.25
43.06	1060
43.08	1092.5
43.1	1128
43.12	1180.25
43.14	1236.75
43.16	1227.75
43.18	1278.25
43.2	1239.25
43.22	1235
43.24	1255
43.26	1225.75
43.28	1226.75
43.3	1168.5
43.32	1170.75
43.34	1122.25
43.36	1077
43.38	1040.75
43.4	1033.75
43.42	1027.25
43.44	1020.75
43.46	1020.5
43.48	1000.25
43.5	983.25
43.52	1026.25
43.54	1004
43.56	1021.75
43.58	1029
43.6	1003.25
43.62	1006.75
43.64	1025.5
43.66	985.5
43.68	987
43.7	954.5
43.72	987.5
43.74	943.5
43.76	934.5
43.78	926.5
43.8	948
43.82	928.25
43.84	943.75
43.86	909.25
43.88	913
43.9	891.5
43.92	901.75
43.94	899.25
43.96	905
43.98	920
44	934.25