File: xrd_output/random_files/2M1-std-42.TXT
Sample
Comments
Filename	C:\WINDMAX\DATA\USERS\GEO\GEO_ER~1\Pyrenees\BULKMA~1\2M1-std2.raw
Goniometer	Ultima IV In-plane
Attachment	Auto sample changer (10 samples)
ScanningMode	2Theta/Theta
ScanningType	Continuos Scanning
X-Ray	40kV/44mA
DivSlit	2/3deg.
DivH.L.Slit	10mm
SctSlit	2/3deg.
RecSlit	0.3mm
Start	16
Stop	44
Step	0.02
Speed	0.3
Offset	0
  16.000  789.745
  16.020  652.667
  16.040  801.725
  16.060  600.365
  16.080  737.953
  16.100  849.681
  16.120  728.327
  16.140  836.840
  16.160  727.652
  16.180  759.072
  16.200  762.998
  16.220  596.531
  16.240  663.362
  16.260  783.760
  16.280  729.730
  16.300  632.704
  16.320  664.269
  16.340  544.959
  16.360  695.613
  16.380  779.941
  16.400  542.347
  16.420  768.363
  16.440  574.118
  16.460  790.936
  16.480  530.319
  16.500  639.077
  16.520  593.717
  16.540  541.852
  16.560  734.724
  16.580  774.087
  16.600  630.605
  16.620  546.107
  16.640  598.594
  16.660  622.137
  16.680  624.679
  16.700  669.520
  16.720  628.967
  16.740  767.113
  16.760  606.964
  16.780  649.444
  16.800  783.152
  16.820  623.084
  16.840  635.050
  16.860  518.489
  16.880  586.092
  16.900  529.972
  16.920  625.389
  16.940  729.146
  16.960  508.338
  16.980  634.168
  17.000  758.637
  17.020  709.340
  17.040  557.426
  17.060  776.810
  17.080  759.939
  17.100  710.154
  17.120  756.811
  17.140  540.720
  17.160  623.080
  17.180  725.683
  17.200  721.699
  17.220  642.792
  17.240  572.471
  17.260  579.554
  17.280  532.968
  17.300  624.879
  17.320  640.403
  17.340  622.029
  17.360  656.841
  17.380  785.346
  17.400  686.565
  17.420  718.759
  17.440  622.521
  17.460  767.361
  17.480  768.771
  17.500  820.171
  17.520  722.769
  17.540  780.664
  17.560  707.054
  17.580  727.162
  17.600  836.833
  17.620  832.736
  17.640  815.616
  17.660  753.232
  17.680  914.284
  17.700  834.566
  17.720  985.129
  17.740  878.920
  17.760 1129.226
  17.780 1046.136
  17.800 1152.437
  17.820 1274.518
  17.840 1135.631
  17.860 1248.455
  17.880 1342.299
  17.900 1248.969
  17.920 1345.475
  17.940 1242.312
  17.960 1262.115
  17.980 1251.488
  18.000 1267.792
  18.020 1244.186
  18.040 1320.585
  18.060 1285.315
  18.080 1252.495
  18.100 1109.916
  18.120 1186.816
  18.140  996.057
  18.160 1095.266
  18.180 1052.352
  18.200  836.895
  18.220 1015.665
  18.240  780.503
  18.260  958.424
  18.280  706.906
  18.300  727.443
  18.320  800.403
  18.340  765.078
  18.360  745.375
  18.380  831.422
  18.400  876.137
  18.420  807.849
  18.440  740.732
  18.460  842.402
  18.480  641.891
  18.500  818.854
  18.520  647.854
  18.540  825.716
  18.560  729.991
  18.580  736.931
  18.600  665.519
  18.620  719.827
  18.640  751.185
  18.660  789.915
  18.680  716.969
  18.700  813.878
  18.720  802.288
  18.740  823.174
  18.760  661.743
  18.780  802.335
  18.800  840.025
  18.820  724.209
  18.840  761.724
  18.860  811.071
  18.880  803.785
  18.900  648.829
  18.920  752.622
  18.940  664.273
  18.960  740.555
  18.980  670.230
  19.000  621.358
  19.020  818.313
  19.040  853.605
  19.060  685.159
  19.080  838.311
  19.100  719.011
  19.120  848.004
  19.140  702.322
  19.160  703.503
  19.180  594.920
  19.200  754.094
  19.220  762.374
  19.240  718.457
  19.260  700.975
  19.280  615.534
  19.300  792.578
  19.320  713.913
  19.340  819.870
  19.360  861.810
  19.380  604.995
  19.400  708.254
  19.420  804.374
  19.440  891.293
  19.460  859.904
  19.480  711.625
  19.500  696.133
  19.520  901.265
  19.540  730.957
  19.560  838.102
  19.580  905.000
  19.600  912.933
  19.620 1027.729
  19.640  899.074
  19.660  943.290
  19.680 1148.817
  19.700 1137.639
  19.720 1226.727
  19.740 1232.170
  19.760 1385.850
  19.780 1495.324
  19.800 1619.359
  19.820 1704.925
  19.840 1833.194
  19.860 1938.775
  19.880 2137.814
  19.900 2145.174
  19.920 2320.139
  19.940 2467.175
  19.960 2515.761
  19.980 2607.296
  20.000 2685.474
  20.020 2666.696
  20.040 2610.626
  20.060 2454.419
  20.080 2564.644
  20.100 2374.798
  20.120 2128.921
  20.140 1877.709
  20.160 1885.222
  20.180 1582.823
  20.200 1625.316
  20.220 1281.789
  20.240 1317.720
  20.260 1357.298
  20.280 1119.372
  20.300 1268.743
  20.320 1080.354
  20.340 1150.329
  20.360 1216.876
  20.380 1121.684
  20.400 1170.231
  20.420  941.138
  20.440 1061.828
  20.460 1014.509
  20.480 1059.262
  20.500 1042.222
  20.520 1076.415
  20.540 1038.760
  20.560  823.813
  20.580 1035.688
  20.600  914.453
  20.620  975.903
  20.640 1035.542
  20.660  934.941
  20.680 1043.360
  20.700 1237.353
  20.720 1239.769
  20.740 1272.500
  20.760 1196.245
  20.780 1237.847
  20.800 1236.223
  20.820 1145.156
  20.840 1185.619
  20.860 1273.572
  20.880 1123.623
  20.900 1019.253
  20.920 1107.105
  20.940  952.496
  20.960 1028.107
  20.980  997.671
  21.000  868.799
  21.020  865.246
  21.040  962.164
  21.060  871.144
  21.080  873.367
  21.100  896.598
  21.120  706.642
  21.140  906.878
  21.160  931.081
  21.180  770.872
  21.200  857.009
  21.220  707.092
  21.240  875.443
  21.260  737.662
  21.280  689.783
  21.300  730.184
  21.320  749.078
  21.340  902.622
  21.360  803.805
  21.380  949.604
  21.400  871.872
  21.420  885.314
  21.440  947.522
  21.460  848.362
  21.480  851.314
  21.500  842.675
  21.520  823.717
  21.540  957.982
  21.560 1049.847
  21.580 1090.886
  21.600  952.098
  21.620 1039.398
  21.640 1088.863
  21.660 1199.113
  21.680 1006.671
  21.700 1170.261
  21.720 1142.748
  21.740 1102.907
  21.760 1066.537
  21.780  990.542
  21.800 1128.980
  21.820  997.133
  21.840 1071.589
  21.860 1066.428
  21.880  849.836
  21.900  878.976
  21.920  870.126
  21.940  956.323
  21.960  827.287
  21.980  772.068
  22.000  809.595
  22.020  830.048
  22.040  867.347
  22.060  868.696
  22.080  691.562
  22.100  921.861
  22.120  737.987
  22.140  853.102
  22.160  719.213
  22.180  826.516
  22.200  752.195
  22.220  794.955
  22.240  925.543
  22.260  706.142
  22.280  908.721
  22.300  757.790
  22.320  809.564
  22.340  749.635
  22.360  911.928
  22.380  846.158
  22.400  921.585
  22.420  983.406
  22.440  770.031
  22.460  949.692
  22.480  935.423
  22.500  866.250
  22.520  770.862
  22.540  825.596
  22.560  839.166
  22.580  837.562
  22.600  821.363
  22.620  972.255
  22.640 1078.540
  22.660 1018.763
  22.680  812.643
  22.700  846.366
  22.720 1058.789
  22.740 1061.758
  22.760 1005.858
  22.780  938.566
  22.800  998.600
  22.820 1178.816
  22.840  993.287
  22.860 1222.926
  22.880 1204.344
  22.900 1286.583
  22.920 1321.998
  22.940 1315.771
  22.960 1460.556
  22.980 1430.692
  23.000 1592.086
  23.020 1568.249
  23.040 1574.584
  23.060 1708.578
  23.080 1661.964
  23.100 1679.434
  23.120 1546.659
  23.140 1402.022
  23.160 1375.836
  23.180 1269.889
  23.200 1399.622
  23.220 1174.339
  23.240 1138.391
  23.260  980.244
  23.280 1079.197
  23.300 1096.845
  23.320 1046.280
  23.340  830.671
  23.360  837.200
  23.380  832.001
  23.400  776.299
  23.420  827.652
  23.440  920.421
  23.460  794.709
  23.480  824.597
  23.500  872.374
  23.520  834.009
  23.540 1002.089
  23.560  969.867
  23.580  792.947
  23.600  905.129
  23.620  959.206
  23.640 1025.644
  23.660  970.115
  23.680 1059.169
  23.700  948.601
  23.720  959.406
  23.740 1154.241
  23.760 1229.728
  23.780 1139.015
  23.800 1128.176
  23.820 1310.513
  23.840 1386.861
  23.860 1401.381
  23.880 1368.374
  23.900 1478.453
  23.920 1581.594
  23.940 1644.431
  23.960 1463.047
  23.980 1605.629
  24.000 1465.406
  24.020 1578.121
  24.040 1610.229
  24.060 1534.591
  24.080 1414.482
  24.100 1569.593
  24.120 1331.637
  24.140 1469.761
  24.160 1377.538
  24.180 1301.426
  24.200 1205.839
  24.220 1261.423
  24.240 1213.224
  24.260 1174.553
  24.280 1156.464
  24.300 1162.239
  24.320 1071.735
  24.340  999.783
  24.360  927.055
  24.380 1016.740
  24.400  938.156
  24.420 1008.851
  24.440  940.593
  24.460  847.668
  24.480  950.372
  24.500  824.132
  24.520  769.528
  24.540  779.043
  24.560  889.021
  24.580  921.119
  24.600  711.877
  24.620  872.277
  24.640  794.782
  24.660  894.176
  24.680  861.992
  24.700  864.104
  24.720  846.819
  24.740  901.513
  24.760  926.789
  24.780  784.601
  24.800  928.520
  24.820  745.825
  24.840  926.713
  24.860  952.943
  24.880  973.696
  24.900  850.037
  24.920  847.108
  24.940 1015.899
  24.960  934.512
  24.980  779.950
  25.000  933.546
  25.020  924.237
  25.040  928.297
  25.060 1038.295
  25.080 1059.740
  25.100 1115.155
  25.120  893.502
  25.140 1018.363
  25.160 1068.571
  25.180 1007.254
  25.200 1183.481
  25.220 1217.442
  25.240 1133.398
  25.260 1008.367
  25.280 1179.110
  25.300 1045.695
  25.320 1231.768
  25.340 1069.891
  25.360 1262.814
  25.380 1312.593
  25.400 1113.662
  25.420 1135.249
  25.440 1192.048
  25.460 1321.619
  25.480 1266.828
  25.500 1326.277
  25.520 1424.735
  25.540 1422.563
  25.560 1475.824
  25.580 1537.549
  25.600 1597.100
  25.620 1601.405
  25.640 1687.661
  25.660 1753.406
  25.680 1608.896
  25.700 1559.943
  25.720 1448.114
  25.740 1625.431
  25.760 1516.361
  25.780 1477.691
  25.800 1325.186
  25.820 1099.260
  25.840 1136.288
  25.860 1229.003
  25.880 1064.213
  25.900  939.697
  25.920  951.772
  25.940 1053.954
  25.960  942.458
  25.980  852.613
  26.000 1008.878
  26.020 1037.490
  26.040  891.494
  26.060  952.816
  26.080  857.265
  26.100  898.108
  26.120  929.025
  26.140  952.980
  26.160  953.324
  26.180  900.204
  26.200  739.765
  26.220  910.805
  26.240  842.023
  26.260  779.992
  26.280  852.932
  26.300  841.410
  26.320  841.362
  26.340  940.039
  26.360 1021.893
  26.380  908.935
  26.400 1030.948
  26.420 1071.855
  26.440  934.387
  26.460 1015.451
  26.480 1058.662
  26.500 1125.297
  26.520 1040.191
  26.540 1234.843
  26.560 1368.555
  26.580 1219.186
  26.600 1377.362
  26.620 1484.781
  26.640 1618.186
  26.660 1549.072
  26.680 1784.748
  26.700 1888.091
  26.720 1893.949
  26.740 2130.923
  26.760 2221.400
  26.780 2215.945
  26.800 2254.255
  26.820 2405.499
  26.840 2398.962
  26.860 2480.551
  26.880 2516.224
  26.900 2362.180
  26.920 2334.618
  26.940 2239.965
  26.960 2046.436
  26.980 2109.177
  27.000 1908.873
  27.020 1715.180
  27.040 1662.864
  27.060 1400.162
  27.080 1379.454
  27.100 1463.801
  27.120 1280.014
  27.140 1271.641
  27.160 1040.500
  27.180 1230.653
  27.200 1175.250
  27.220  959.987
  27.240  915.184
  27.260 1044.539
  27.280  913.397
  27.300  986.996
  27.320  944.897
  27.340  852.911
  27.360  792.311
  27.380 1063.008
  27.400  866.268
  27.420  869.319
  27.440  852.372
  27.460  779.924
  27.480 1008.505
  27.500  937.057
  27.520 1056.385
  27.540  863.074
  27.560  863.330
  27.580 1076.441
  27.600  935.700
  27.620  898.051
  27.640  942.525
  27.660  874.374
  27.680  934.878
  27.700 1034.288
  27.720 1030.164
  27.740 1114.425
  27.760 1102.022
  27.780 1005.956
  27.800 1046.003
  27.820 1124.464
  27.840 1123.685
  27.860 1433.657
  27.880 1376.192
  27.900 1393.560
  27.920 1537.770
  27.940 1621.432
  27.960 1705.110
  27.980 1635.446
  28.000 1689.399
  28.020 1727.637
  28.040 1769.145
  28.060 1557.434
  28.080 1617.762
  28.100 1508.496
  28.120 1611.147
  28.140 1381.723
  28.160 1422.836
  28.180 1396.338
  28.200 1307.747
  28.220 1193.734
  28.240 1062.483
  28.260 1001.175
  28.280 1113.013
  28.300  947.063
  28.320 1159.764
  28.340  918.825
  28.360  939.596
  28.380  890.076
  28.400 1004.226
  28.420  908.885
  28.440  868.329
  28.460  985.507
  28.480  882.206
  28.500  971.288
  28.520  956.182
  28.540  997.657
  28.560  890.558
  28.580  883.578
  28.600  900.329
  28.620 1051.109
  28.640 1043.484
  28.660  924.809
  28.680  866.553
  28.700  873.736
  28.720 1039.178
  28.740  897.833
  28.760 1018.370
  28.780  939.260
  28.800  953.178
  28.820  829.426
  28.840  925.852
  28.860  856.813
  28.880  835.780
  28.900  838.325
  28.920  803.387
  28.940  874.913
  28.960  766.636
  28.980  920.322
  29.000  739.384
  29.020  898.957
  29.040  794.993
  29.060  823.414
  29.080  701.161
  29.100  966.219
  29.120  786.346
  29.140  845.401
  29.160  913.078
  29.180  633.305
  29.200  664.000
  29.220  635.783
  29.240  717.371
  29.260  732.213
  29.280  788.386
  29.300  737.606
  29.320  780.909
  29.340  784.334
  29.360  698.626
  29.380  832.761
  29.400  827.838
  29.420  830.338
  29.440  726.656
  29.460  733.438
  29.480  725.975
  29.500  860.010
  29.520  887.220
  29.540  770.001
  29.560  761.806
  29.580  704.802
  29.600  835.601
  29.620  803.204
  29.640  802.393
  29.660  958.155
  29.680  989.638
  29.700  863.198
  29.720  847.861
  29.740  884.248
  29.760 1066.187
  29.780 1088.902
  29.800 1028.228
  29.820 1101.109
  29.840 1229.145
  29.860 1178.195
  29.880 1293.468
  29.900 1387.566
  29.920 1305.649
  29.940 1465.245
  29.960 1447.670
  29.980 1419.423
  30.000 1512.820
  30.020 1461.378
  30.040 1520.187
  30.060 1468.911
  30.080 1475.765
  30.100 1437.750
  30.120 1368.578
  30.140 1358.697
  30.160 1225.117
  30.180 1157.835
  30.200 1162.990
  30.220 1088.399
  30.240  974.078
  30.260 1061.031
  30.280  934.675
  30.300  973.950
  30.320  757.403
  30.340  833.442
  30.360  740.111
  30.380  880.221
  30.400  837.327
  30.420  799.989
  30.440  801.878
  30.460  803.324
  30.480  706.382
  30.500  817.421
  30.520  717.890
  30.540  696.881
  30.560  753.024
  30.580  823.028
  30.600  628.710
  30.620  695.772
  30.640  664.863
  30.660  636.747
  30.680  747.704
  30.700  729.670
  30.720  780.062
  30.740  815.037
  30.760  772.450
  30.780  765.941
  30.800  844.615
  30.820  692.141
  30.840  691.208
  30.860  680.501
  30.880  643.411
  30.900  649.865
  30.920  702.029
  30.940  704.829
  30.960  812.834
  30.980  827.279
  31.000  951.407
  31.020  804.378
  31.040  890.996
  31.060  949.871
  31.080  873.145
  31.100  958.588
  31.120  930.260
  31.140  965.831
  31.160  983.049
  31.180 1073.088
  31.200 1048.784
  31.220 1075.598
  31.240 1346.623
  31.260 1219.538
  31.280 1404.142
  31.300 1326.360
  31.320 1339.259
  31.340 1424.497
  31.360 1560.555
  31.380 1388.858
  31.400 1464.845
  31.420 1683.939
  31.440 1490.677
  31.460 1587.313
  31.480 1409.089
  31.500 1378.752
  31.520 1524.824
  31.540 1551.244
  31.560 1325.721
  31.580 1540.835
  31.600 1493.046
  31.620 1422.475
  31.640 1539.634
  31.660 1585.546
  31.680 1514.117
  31.700 1436.375
  31.720 1430.490
  31.740 1514.995
  31.760 1393.375
  31.780 1454.221
  31.800 1347.070
  31.820 1429.815
  31.840 1299.433
  31.860 1165.997
  31.880 1271.179
  31.900 1279.253
  31.920 1112.269
  31.940 1056.740
  31.960 1099.277
  31.980 1108.951
  32.000  940.991
  32.020 1108.853
  32.040  999.942
  32.060 1140.901
  32.080  937.879
  32.100 1221.383
  32.120 1084.911
  32.140 1050.941
  32.160 1153.944
  32.180 1226.672
  32.200 1179.371
  32.220 1060.935
  32.240 1039.163
  32.260 1013.053
  32.280 1193.245
  32.300 1057.624
  32.320  996.417
  32.340  921.875
  32.360 1044.039
  32.380  907.332
  32.400  873.439
  32.420  725.928
  32.440  800.762
  32.460  723.293
  32.480  791.216
  32.500  841.622
  32.520  626.164
  32.540  776.184
  32.560  644.837
  32.580  639.862
  32.600  639.630
  32.620  771.744
  32.640  734.693
  32.660  572.099
  32.680  805.570
  32.700  592.773
  32.720  749.879
  32.740  699.375
  32.760  620.197
  32.780  705.631
  32.800  784.349
  32.820  676.758
  32.840  819.352
  32.860  642.768
  32.880  770.884
  32.900  605.278
  32.920  714.840
  32.940  639.271
  32.960  835.955
  32.980  829.863
  33.000  704.511
  33.020  853.245
  33.040  818.157
  33.060  674.929
  33.080  790.541
  33.100  685.303
  33.120  583.252
  33.140  587.214
  33.160  571.434
  33.180  536.240
  33.200  633.542
  33.220  736.636
  33.240  531.853
  33.260  673.682
  33.280  558.904
  33.300  690.457
  33.320  565.022
  33.340  672.414
  33.360  560.557
  33.380  549.191
  33.400  522.977
  33.420  672.798
  33.440  740.730
  33.460  666.472
  33.480  617.360
  33.500  607.773
  33.520  640.848
  33.540  707.424
  33.560  667.238
  33.580  579.723
  33.600  613.377
  33.620  650.522
  33.640  736.711
  33.660  767.586
  33.680  538.740
  33.700  662.989
  33.720  567.271
  33.740  589.276
  33.760  714.195
  33.780  570.868
  33.800  800.246
  33.820  730.050
  33.840  567.777
  33.860  548.279
  33.880  812.600
  33.900  744.745
  33.920  673.239
  33.940  714.664
  33.960  709.070
  33.980  623.909
  34.000  636.046
  34.020  736.290
  34.040  712.975
  34.060  641.530
  34.080  717.378
  34.100  665.118
  34.120  715.842
  34.140  612.876
  34.160  857.453
  34.180  835.407
  34.200  717.355
  34.220  647.597
  34.240  674.616
  34.260  680.902
  34.280  628.118
  34.300  715.090
  34.320  726.177
  34.340  705.667
  34.360  621.466
  34.380  763.315
  34.400  860.028
  34.420  668.882
  34.440  752.944
  34.460  804.785
  34.480  859.936
  34.500  798.475
  34.520  855.973
  34.540 1017.447
  34.560  969.100
  34.580 1001.663
  34.600 1236.519
  34.620 1105.652
  34.640 1237.227
  34.660 1322.366
  34.680 1446.773
  34.700 1414.295
  34.720 1428.816
  34.740 1479.333
  34.760 1643.822
  34.780 1661.097
  34.800 1706.057
  34.820 1637.298
  34.840 1818.976
  34.860 1715.093
  34.880 1723.760
  34.900 1861.655
  34.920 1921.777
  34.940 1764.302
  34.960 1884.089
  34.980 1947.177
  35.000 2150.178
  35.020 2151.949
  35.040 2301.737
  35.060 2306.529
  35.080 2478.618
  35.100 2781.365
  35.120 2634.441
  35.140 2709.277
  35.160 2802.919
  35.180 2826.344
  35.200 2879.185
  35.220 2635.050
  35.240 2544.745
  35.260 2517.333
  35.280 2303.072
  35.300 2029.653
  35.320 1936.661
  35.340 1675.397
  35.360 1509.866
  35.380 1577.824
  35.400 1504.734
  35.420 1237.118
  35.440 1303.776
  35.460 1062.029
  35.480  933.200
  35.500  942.504
  35.520  989.967
  35.540  802.612
  35.560  980.973
  35.580  894.542
  35.600  978.597
  35.620  836.426
  35.640  898.591
  35.660  962.941
  35.680  858.875
  35.700  714.152
  35.720  938.090
  35.740  886.227
  35.760  833.572
  35.780  685.399
  35.800  717.271
  35.820  780.315
  35.840  878.549
  35.860  785.820
  35.880  745.054
  35.900  768.027
  35.920  703.521
  35.940  899.278
  35.960  760.934
  35.980  804.570
  36.000  906.473
  36.020  906.522
  36.040  703.574
  36.060  893.352
  36.080  881.751
  36.100  787.805
  36.120  901.600
  36.140  760.706
  36.160  911.435
  36.180  779.098
  36.200  982.491
  36.220  889.555
  36.240  723.435
  36.260  832.011
  36.280  871.284
  36.300  930.770
  36.320  803.824
  36.340  954.352
  36.360  815.536
  36.380  795.616
  36.400  813.672
  36.420  806.136
  36.440  995.043
  36.460 1028.486
  36.480  830.686
  36.500 1068.886
  36.520 1151.849
  36.540 1015.946
  36.560 1070.251
  36.580 1047.662
  36.600 1057.546
  36.620 1065.062
  36.640 1059.780
  36.660 1051.000
  36.680 1040.229
  36.700  992.964
  36.720 1003.449
  36.740 1053.632
  36.760 1021.410
  36.780 1053.540
  36.800 1092.363
  36.820 1081.631
  36.840 1117.098
  36.860  909.103
  36.880  921.603
  36.900 1031.632
  36.920 1041.515
  36.940  961.905
  36.960  836.871
  36.980 1058.884
  37.000  926.882
  37.020  888.900
  37.040  880.314
  37.060  861.949
  37.080  754.095
  37.100  826.262
  37.120  857.263
  37.140  760.737
  37.160  839.347
  37.180  748.346
  37.200  865.094
  37.220  842.460
  37.240  855.167
  37.260  863.197
  37.280  661.715
  37.300  715.422
  37.320  826.600
  37.340  828.312
  37.360  645.403
  37.380  668.626
  37.400  838.190
  37.420  847.323
  37.440  842.605
  37.460  802.561
  37.480  928.486
  37.500  863.186
  37.520  839.164
  37.540  789.491
  37.560 1002.453
  37.580  828.806
  37.600  987.281
  37.620  856.296
  37.640  900.237
  37.660 1008.856
  37.680  925.020
  37.700 1056.553
  37.720 1018.263
  37.740 1049.797
  37.760 1174.333
  37.780 1183.049
  37.800 1111.938
  37.820 1202.158
  37.840 1254.680
  37.860 1211.809
  37.880 1263.155
  37.900 1302.524
  37.920 1255.095
  37.940 1291.095
  37.960 1263.988
  37.980 1124.303
  38.000 1174.876
  38.020 1025.935
  38.040  993.810
  38.060 1204.418
  38.080 1027.285
  38.100  959.400
  38.120 1017.195
  38.140  907.420
  38.160  989.684
  38.180  818.040
  38.200  764.315
  38.220  759.302
  38.240  943.557
  38.260  893.739
  38.280  831.059
  38.300  903.086
  38.320  789.956
  38.340  913.148
  38.360  681.749
  38.380  902.941
  38.400  822.152
  38.420  861.829
  38.440  713.771
  38.460  654.746
  38.480  657.668
  38.500  636.637
  38.520  666.546
  38.540  775.498
  38.560  771.937
  38.580  632.238
  38.600  542.043
  38.620  626.490
  38.640  696.421
  38.660  715.497
  38.680  653.480
  38.700  543.533
  38.720  695.221
  38.740  610.138
  38.760  499.217
  38.780  611.125
  38.800  511.163
  38.820  512.956
  38.840  524.707
  38.860  721.120
  38.880  566.387
  38.900  639.906
  38.920  516.502
  38.940  725.528
  38.960  489.452
  38.980  613.281
  39.000  701.383
  39.020  729.695
  39.040  513.279
  39.060  656.167
  39.080  500.061
  39.100  481.934
  39.120  545.604
  39.140  524.775
  39.160  518.443
  39.180  703.304
  39.200  524.788
  39.220  610.232
  39.240  476.183
  39.260  488.292
  39.280  663.451
  39.300  531.548
  39.320  630.303
  39.340  556.988
  39.360  567.773
  39.380  692.101
  39.400  519.702
  39.420  529.005
  39.440  710.731
  39.460  623.100
  39.480  590.582
  39.500  614.008
  39.520  606.573
  39.540  678.316
  39.560  707.893
  39.580  638.340
  39.600  666.787
  39.620  742.354
  39.640  680.905
  39.660  560.534
  39.680  561.222
  39.700  752.332
  39.720  667.057
  39.740  719.610
  39.760  549.442
  39.780  518.533
  39.800  522.388
  39.820  636.076
  39.840  545.886
  39.860  642.980
  39.880  665.511
  39.900  547.179
  39.920  752.333
  39.940  723.059
  39.960  624.822
  39.980  653.736
  40.000  792.777
  40.020  765.655
  40.040  651.774
  40.060  776.604
  40.080  874.755
  40.100  684.390
  40.120  650.514
  40.140  763.531
  40.160  916.854
  40.180  866.663
  40.200  804.407
  40.220  951.101
  40.240  813.880
  40.260  731.846
  40.280  884.714
  40.300  765.768
  40.320  931.518
  40.340  913.728
  40.360  781.898
  40.380  839.791
  40.400  851.301
  40.420  909.056
  40.440  863.215
  40.460  704.521
  40.480  743.708
  40.500  917.358
  40.520  683.769
  40.540  813.095
  40.560  739.231
  40.580  832.474
  40.600  891.275
  40.620  708.445
  40.640  785.945
  40.660  620.998
  40.680  729.166
  40.700  784.149
  40.720  830.908
  40.740  909.778
  40.760  652.719
  40.780  690.678
  40.800  838.430
  40.820  761.851
  40.840  736.344
  40.860  855.223
  40.880  902.685
  40.900  832.678
  40.920  943.616
  40.940  934.954
  40.960  876.829
  40.980  929.307
  41.000  950.130
  41.020  767.344
  41.040  797.719
  41.060  801.787
  41.080  813.324
  41.100  731.448
  41.120  847.839
  41.140  829.268
  41.160  895.899
  41.180  802.443
  41.200  678.593
  41.220  863.502
  41.240  715.518
  41.260  762.978
  41.280  853.170
  41.300  894.790
  41.320  897.570
  41.340  848.331
  41.360  875.804
  41.380  773.028
  41.400  674.200
  41.420  697.380
  41.440  859.691
  41.460  752.122
  41.480  754.802
  41.500  687.267
  41.520  888.560
  41.540  650.852
  41.560  888.298
  41.580  692.060
  41.600  765.489
  41.620  753.209
  41.640  807.867
  41.660  654.075
  41.680  742.348
  41.700  634.958
  41.720  809.868
  41.740  701.818
  41.760  757.665
  41.780  604.857
  41.800  548.741
  41.820  687.191
  41.840  608.973
  41.860  598.346
  41.880  747.127
  41.900  678.502
  41.920  766.578
  41.940  824.641
  41.960  716.462
  41.980  636.374
  42.000  704.769
  42.020  763.586
  42.040  758.694
  42.060  926.610
  42.080  762.097
  42.100  923.099
  42.120  965.219
  42.140 1011.627
  42.160  904.162
  42.180  818.160
  42.200  813.525
  42.220  924.444
  42.240  896.213
  42.260  925.399
  42.280  885.336
  42.300  917.639
  42.320  916.487
  42.340  930.053
  42.360 1007.668
  42.380  925.181
  42.400 1035.981
  42.420  975.322
  42.440  966.365
  42.460 1103.823
  42.480 1144.277
  42.500  922.290
  42.520  936.442
  42.540 1105.866
  42.560  983.762
  42.580  995.198
  42.600  932.471
  42.620  972.833
  42.640 1054.404
  42.660 1086.142
  42.680  980.849
  42.700  937.977
  42.720  925.434
  42.740  926.078
  42.760  795.268
  42.780  924.075
  42.800  813.349
  42.820  721.052
  42.840  658.264
  42.860  682.581
  42.880  618.776
  42.900  765.323
  42.920  723.227
  42.940  572.545
  42.960  635.393
  42.980  655.288
  43.000  675.458
  43.020  618.569
  43.040  573.075
  43.060  465.732
  43.080  573.195
  43.100  590.691
  43.120  469.586
  43.140  602.312
  43.160  564.563
  43.180  612.188
  43.200  634.109
  43.220  478.233
  43.240  576.174
  43.260  444.376
  43.280  554.353
  43.300  533.726
  43.320  640.166
  43.340  503.447
  43.360  447.949
  43.380  687.605
  43.400  609.498
  43.420  663.968
  43.440  655.997
  43.460  407.547
  43.480  543.110
  43.500  552.559
  43.520  623.676
  43.540  479.106
  43.560  478.466
  43.580  568.115
  43.600  563.423
  43.620  533.717
  43.640  493.395
  43.660  600.737
  43.680  503.075
  43.700  456.046
  43.720  677.656
  43.740  718.249
  43.760  700.121
  43.780  521.920
  43.800  514.097
  43.820  659.321
  43.840  516.991
  43.860  549.368
  43.880  594.379
  43.900  701.330
  43.920  649.040
  43.940  528.320
  43.960  536.271
  43.980  601.812
  44.000  562.674