File: xrd_output/random_files/2M1-std-18.TXT
Sample
Comments
Filename	C:\WINDMAX\DATA\USERS\GEO\GEO_ER~1\Pyrenees\BULKMA~1\2M1-std2.raw
Goniometer	Ultima IV In-plane
Attachment	Auto sample changer (10 samples)
ScanningMode	2Theta/Theta
ScanningType	Continuos Scanning
X-Ray	40kV/44mA
DivSlit	2/3deg.
DivH.L.Slit	10mm
SctSlit	2/3deg.
RecSlit	0.3mm
Start	16
Stop	44
Step	0.02
Speed	0.3
Offset	0
  16.000  614.226
  16.020  710.835
  16.040  636.353
  16.060  813.837
  16.080  657.555
  16.100  712.803
  16.120  722.466
  16.140  669.659
  16.160  858.717
  16.180  802.374
  16.200  716.558
  16.220  634.720
  16.240  784.968
  16.260  740.903
  16.280  582.016
  16.300  539.020
  16.320  719.984
  16.340  773.243
  16.360  658.483
  16.380  774.405
  16.400  526.958
  16.420  654.610
  16.440  654.005
  16.460  705.616
  16.480  693.321
  16.500  681.134
  16.520  664.345
  16.540  680.845
  16.560  630.265
  16.580  580.277
  16.600  701.053
  16.620  552.427
  16.640  695.747
  16.660  719.031
  16.680  736.845
  16.700  545.377
  16.720  614.758
  16.740  601.777
  16.760  553.217
  16.780  502.458
  16.800  743.378
  16.820  631.108
  16.840  743.214
  16.860  753.731
  16.880  583.149
  16.900  675.252
  16.920  632.537
  16.940  569.866
  16.960  649.634
  16.980  733.432
  17.000  570.021
  17.020  566.564
  17.040  532.831
  17.060  571.187
  17.080  597.146
  17.100  581.108
  17.120  619.326
  17.140  546.004
  17.160  523.795
  17.180  736.520
  17.200  603.797
  17.220  669.226
  17.240  638.419
  17.260  654.620
  17.280  566.095
  17.300  600.715
  17.320  613.777
  17.340  570.865
  17.360  540.762
  17.380  750.309
  17.400  685.414
  17.420  735.909
  17.440  751.602
  17.460  617.506
  17.480  645.145
  17.500  795.730
  17.520  853.280
  17.540  838.384
  17.560  622.993
  17.580  724.387
  17.600  862.881
  17.620  855.946
  17.640  779.730
  17.660  818.928
  17.680  822.124
  17.700  830.777
  17.720  823.272
  17.740  990.300
  17.760  896.953
  17.780 1142.831
  17.800 1067.070
  17.820 1165.450
  17.840 1129.750
  17.860 1294.305
  17.880 1345.067
  17.900 1427.375
  17.920 1288.848
  17.940 1240.409
  17.960 1457.047
  17.980 1385.784
  18.000 1369.636
  18.020 1335.428
  18.040 1213.735
  18.060 1157.258
  18.080 1243.385
  18.100 1148.631
  18.120 1102.382
  18.140 1031.296
  18.160  959.206
  18.180  897.390
  18.200  889.680
  18.220  883.614
  18.240  793.490
  18.260  850.261
  18.280  840.216
  18.300  650.568
  18.320  673.047
  18.340  718.854
  18.360  776.547
  18.380  787.741
  18.400  673.499
  18.420  714.780
  18.440  832.316
  18.460  739.153
  18.480  705.432
  18.500  636.932
  18.520  657.025
  18.540  787.146
  18.560  681.257
  18.580  809.366
  18.600  866.365
  18.620  868.701
  18.640  636.604
  18.660  753.683
  18.680  845.345
  18.700  778.788
  18.720  708.941
  18.740  767.023
  18.760  749.846
  18.780  865.688
  18.800  772.065
  18.820  840.682
  18.840  810.489
  18.860  764.864
  18.880  643.527
  18.900  597.988
  18.920  695.019
  18.940  779.869
  18.960  778.190
  18.980  668.878
  19.000  649.199
  19.020  703.019
  19.040  631.058
  19.060  741.300
  19.080  610.872
  19.100  694.965
  19.120  726.311
  19.140  764.901
  19.160  674.875
  19.180  805.049
  19.200  773.061
  19.220  718.145
  19.240  695.322
  19.260  598.646
  19.280  684.099
  19.300  701.245
  19.320  769.337
  19.340  624.281
  19.360  753.028
  19.380  707.442
  19.400  712.588
  19.420  660.267
  19.440  663.306
  19.460  639.383
  19.480  751.798
  19.500  895.673
  19.520  906.016
  19.540  918.229
  19.560  979.441
  19.580  909.502
  19.600  835.813
  19.620  874.056
  19.640  887.967
  19.660 1080.681
  19.680 1089.521
  19.700 1207.912
  19.720 1248.660
  19.740 1195.381
  19.760 1270.625
  19.780 1419.605
  19.800 1536.507
  19.820 1514.735
  19.840 1673.832
  19.860 1769.522
  19.880 2030.472
  19.900 2276.140
  19.920 2190.625
  19.940 2244.545
  19.960 2571.664
  19.980 2532.487
  20.000 2610.488
  20.020 2628.079
  20.040 2572.463
  20.060 2637.461
  20.080 2508.694
  20.100 2360.695
  20.120 2228.194
  20.140 1969.557
  20.160 1955.549
  20.180 1692.679
  20.200 1372.014
  20.220 1368.013
  20.240 1425.496
  20.260 1166.731
  20.280 1121.295
  20.300 1281.362
  20.320 1039.326
  20.340  943.402
  20.360 1163.646
  20.380 1113.148
  20.400 1189.497
  20.420 1021.679
  20.440  960.010
  20.460 1057.430
  20.480  882.215
  20.500 1043.180
  20.520  995.051
  20.540  987.332
  20.560  919.278
  20.580 1034.113
  20.600  903.175
  20.620  970.727
  20.640  963.665
  20.660 1098.092
  20.680  970.395
  20.700 1050.572
  20.720 1153.575
  20.740 1109.673
  20.760 1246.079
  20.780 1097.320
  20.800 1101.322
  20.820 1310.434
  20.840 1160.630
  20.860 1142.225
  20.880 1034.177
  20.900 1072.803
  20.920  926.764
  20.940 1000.488
  20.960 1062.699
  20.980  966.363
  21.000  800.883
  21.020  802.814
  21.040  832.479
  21.060  729.597
  21.080  822.719
  21.100  914.212
  21.120  856.325
  21.140  675.929
  21.160  867.392
  21.180  792.831
  21.200  742.163
  21.220  701.202
  21.240  838.497
  21.260  763.907
  21.280  749.031
  21.300  762.916
  21.320  881.540
  21.340  844.298
  21.360  753.228
  21.380  771.692
  21.400  761.595
  21.420  975.229
  21.440  940.689
  21.460  775.465
  21.480  949.454
  21.500 1035.039
  21.520  889.359
  21.540 1006.027
  21.560  916.267
  21.580  998.356
  21.600 1158.079
  21.620  951.056
  21.640 1167.364
  21.660 1062.166
  21.680 1025.127
  21.700 1182.290
  21.720 1008.952
  21.740 1216.423
  21.760 1099.663
  21.780 1048.725
  21.800 1150.877
  21.820  980.684
  21.840 1077.331
  21.860 1031.754
  21.880  935.031
  21.900  855.999
  21.920  811.544
  21.940  858.402
  21.960  947.386
  21.980  833.449
  22.000  751.059
  22.020  814.211
  22.040  762.336
  22.060  713.662
  22.080  742.148
  22.100  704.560
  22.120  800.248
  22.140  761.874
  22.160  713.402
  22.180  813.992
  22.200  770.081
  22.220  691.924
  22.240  924.153
  22.260  817.169
  22.280  883.454
  22.300  707.749
  22.320  821.968
  22.340  684.097
  22.360  757.444
  22.380  878.300
  22.400  915.691
  22.420  919.183
  22.440  792.806
  22.460  806.017
  22.480  999.201
  22.500  922.398
  22.520  939.991
  22.540  902.318
  22.560 1022.387
  22.580  946.898
  22.600  954.251
  22.620  973.378
  22.640  853.314
  22.660  828.995
  22.680  995.659
  22.700 1022.722
  22.720  925.873
  22.740  909.113
  22.760  954.234
  22.780  996.159
  22.800 1126.270
  22.820  994.416
  22.840 1073.121
  22.860 1086.773
  22.880 1192.756
  22.900 1305.978
  22.920 1287.450
  22.940 1294.545
  22.960 1380.414
  22.980 1497.849
  23.000 1568.586
  23.020 1518.356
  23.040 1678.344
  23.060 1775.043
  23.080 1524.388
  23.100 1687.088
  23.120 1462.558
  23.140 1572.959
  23.160 1481.189
  23.180 1385.150
  23.200 1213.275
  23.220 1177.425
  23.240 1256.720
  23.260 1033.646
  23.280 1199.462
  23.300 1144.180
  23.320  961.123
  23.340  946.053
  23.360  913.322
  23.380 1035.965
  23.400  848.154
  23.420  816.386
  23.440  826.344
  23.460  827.964
  23.480  837.901
  23.500  770.034
  23.520  896.205
  23.540  995.587
  23.560  884.357
  23.580  839.662
  23.600  835.633
  23.620  895.773
  23.640 1034.878
  23.660 1060.234
  23.680  924.879
  23.700  882.938
  23.720 1104.087
  23.740 1006.257
  23.760 1098.190
  23.780 1037.344
  23.800 1235.501
  23.820 1207.660
  23.840 1306.077
  23.860 1424.659
  23.880 1267.009
  23.900 1441.631
  23.920 1387.516
  23.940 1633.249
  23.960 1632.590
  23.980 1505.472
  24.000 1663.373
  24.020 1643.359
  24.040 1615.226
  24.060 1521.669
  24.080 1395.559
  24.100 1581.759
  24.120 1385.665
  24.140 1360.700
  24.160 1448.521
  24.180 1269.858
  24.200 1285.926
  24.220 1257.423
  24.240 1299.764
  24.260 1150.706
  24.280 1070.976
  24.300 1176.224
  24.320 1109.869
  24.340  999.511
  24.360 1127.685
  24.380 1040.153
  24.400  927.349
  24.420  822.397
  24.440  777.147
  24.460  841.402
  24.480  788.001
  24.500  802.190
  24.520  845.986
  24.540  701.795
  24.560  710.478
  24.580  808.155
  24.600  885.363
  24.620  746.658
  24.640  765.400
  24.660  922.755
  24.680  818.527
  24.700  870.334
  24.720  877.300
  24.740  901.943
  24.760  874.237
  24.780  933.101
  24.800  736.846
  24.820  906.099
  24.840  793.192
  24.860  857.283
  24.880  755.657
  24.900  761.373
  24.920  820.702
  24.940  898.484
  24.960 1039.293
  24.980  876.187
  25.000  989.568
  25.020  869.805
  25.040  861.092
  25.060 1032.493
  25.080  911.675
  25.100 1073.974
  25.120  903.152
  25.140 1099.979
  25.160 1143.524
  25.180 1047.657
  25.200 1046.641
  25.220 1243.739
  25.240 1015.297
  25.260 1023.183
  25.280 1022.255
  25.300 1043.162
  25.320 1065.556
  25.340 1315.350
  25.360 1145.727
  25.380 1338.473
  25.400 1184.034
  25.420 1268.028
  25.440 1282.317
  25.460 1258.289
  25.480 1510.349
  25.500 1317.193
  25.520 1459.846
  25.540 1522.307
  25.560 1506.709
  25.580 1748.889
  25.600 1700.890
  25.620 1728.777
  25.640 1647.364
  25.660 1665.071
  25.680 1847.843
  25.700 1523.989
  25.720 1601.504
  25.740 1532.502
  25.760 1524.623
  25.780 1356.743
  25.800 1352.055
  25.820 1182.480
  25.840 1125.955
  25.860 1151.914
  25.880 1181.523
  25.900 1137.939
  25.920 1131.602
  25.940 1030.502
  25.960  977.491
  25.980  914.486
  26.000  836.543
  26.020  992.724
  26.040  839.183
  26.060  796.387
  26.080  879.395
  26.100  942.802
  26.120  753.119
  26.140  976.455
  26.160  863.538
  26.180 1029.560
  26.200  893.783
  26.220 1018.607
  26.240  847.861
  26.260 1005.575
  26.280 1001.275
  26.300  959.605
  26.320  912.162
  26.340  777.040
  26.360  928.703
  26.380 1109.215
  26.400 1068.300
  26.420  988.411
  26.440  970.972
  26.460 1003.176
  26.480 1052.941
  26.500 1018.590
  26.520 1196.147
  26.540 1245.669
  26.560 1299.000
  26.580 1416.868
  26.600 1502.912
  26.620 1386.298
  26.640 1574.954
  26.660 1686.991
  26.680 1648.980
  26.700 1903.413
  26.720 2034.909
  26.740 2019.606
  26.760 2034.998
  26.780 2115.070
  26.800 2303.531
  26.820 2358.551
  26.840 2326.475
  26.860 2311.598
  26.880 2385.507
  26.900 2412.842
  26.920 2296.308
  26.940 2281.604
  26.960 2096.529
  26.980 1962.175
  27.000 1796.766
  27.020 1858.469
  27.040 1513.993
  27.060 1548.209
  27.080 1366.992
  27.100 1442.259
  27.120 1374.054
  27.140 1305.123
  27.160 1035.546
  27.180 1139.320
  27.200 1111.531
  27.220 1031.767
  27.240 1162.003
  27.260 1018.331
  27.280  981.475
  27.300  873.629
  27.320  974.747
  27.340  941.973
  27.360  961.050
  27.380 1040.852
  27.400  877.697
  27.420  844.997
  27.440 1027.132
  27.460  914.400
  27.480  858.978
  27.500  823.855
  27.520  835.762
  27.540  845.952
  27.560  825.023
  27.580  859.414
  27.600  889.466
  27.620  912.329
  27.640  824.606
  27.660  981.415
  27.680  898.056
  27.700 1075.497
  27.720 1036.242
  27.740 1098.790
  27.760 1166.346
  27.780 1067.415
  27.800 1129.320
  27.820 1119.844
  27.840 1239.975
  27.860 1322.522
  27.880 1342.572
  27.900 1499.282
  27.920 1505.749
  27.940 1466.005
  27.960 1559.756
  27.980 1682.266
  28.000 1588.345
  28.020 1720.859
  28.040 1688.202
  28.060 1539.643
  28.080 1534.109
  28.100 1404.592
  28.120 1444.137
  28.140 1536.054
  28.160 1388.703
  28.180 1213.679
  28.200 1305.162
  28.220 1201.671
  28.240 1008.586
  28.260 1206.638
  28.280 1005.784
  28.300  943.959
  28.320  944.175
  28.340  932.016
  28.360 1013.513
  28.380  882.279
  28.400  935.171
  28.420 1019.428
  28.440 1018.446
  28.460  998.275
  28.480  971.413
  28.500  824.737
  28.520  821.313
  28.540 1001.933
  28.560  864.354
  28.580  872.367
  28.600  817.547
  28.620  902.560
  28.640 1036.987
  28.660  918.889
  28.680 1036.175
  28.700  944.610
  28.720  920.505
  28.740  823.200
  28.760  863.463
  28.780  921.319
  28.800  800.900
  28.820  793.495
  28.840  878.560
  28.860  788.253
  28.880  821.574
  28.900  938.778
  28.920  900.328
  28.940  743.960
  28.960  837.128
  28.980 1003.434
  29.000  737.755
  29.020  861.159
  29.040  812.531
  29.060  871.622
  29.080  787.426
  29.100  811.604
  29.120  867.919
  29.140  888.680
  29.160  885.552
  29.180  817.747
  29.200  814.183
  29.220  881.459
  29.240  757.662
  29.260  753.139
  29.280  747.849
  29.300  648.019
  29.320  865.909
  29.340  769.537
  29.360  856.224
  29.380  841.122
  29.400  636.621
  29.420  688.258
  29.440  825.446
  29.460  762.459
  29.480  833.110
  29.500  752.104
  29.520  729.400
  29.540  646.191
  29.560  821.719
  29.580  759.097
  29.600  810.362
  29.620  798.264
  29.640  953.262
  29.660  891.033
  29.680  953.613
  29.700  867.026
  29.720 1019.225
  29.740  961.432
  29.760 1123.934
  29.780  980.645
  29.800 1102.697
  29.820 1200.648
  29.840 1101.907
  29.860 1210.351
  29.880 1200.170
  29.900 1332.734
  29.920 1310.742
  29.940 1492.493
  29.960 1380.966
  29.980 1458.441
  30.000 1470.376
  30.020 1625.445
  30.040 1551.725
  30.060 1608.128
  30.080 1385.480
  30.100 1390.105
  30.120 1325.754
  30.140 1329.597
  30.160 1366.010
  30.180 1312.955
  30.200 1030.339
  30.220 1017.254
  30.240 1159.820
  30.260 1117.947
  30.280  934.591
  30.300  848.878
  30.320  888.859
  30.340  850.522
  30.360  843.031
  30.380  844.741
  30.400  901.586
  30.420  820.963
  30.440  784.948
  30.460  681.483
  30.480  825.483
  30.500  731.907
  30.520  756.856
  30.540  792.519
  30.560  843.991
  30.580  782.219
  30.600  678.898
  30.620  696.376
  30.640  770.134
  30.660  713.486
  30.680  788.563
  30.700  570.505
  30.720  825.783
  30.740  728.177
  30.760  712.731
  30.780  695.146
  30.800  701.178
  30.820  750.437
  30.840  798.835
  30.860  640.906
  30.880  650.276
  30.900  674.570
  30.920  756.356
  30.940  805.894
  30.960  769.424
  30.980  787.975
  31.000  753.319
  31.020  894.133
  31.040  881.812
  31.060  934.353
  31.080  829.126
  31.100 1079.306
  31.120 1060.825
  31.140  976.555
  31.160 1058.987
  31.180 1058.955
  31.200 1026.790
  31.220 1245.193
  31.240 1239.263
  31.260 1388.515
  31.280 1379.508
  31.300 1515.659
  31.320 1502.280
  31.340 1529.187
  31.360 1398.529
  31.380 1589.743
  31.400 1496.809
  31.420 1528.649
  31.440 1584.317
  31.460 1605.951
  31.480 1407.354
  31.500 1486.042
  31.520 1412.444
  31.540 1472.894
  31.560 1461.477
  31.580 1338.873
  31.600 1460.073
  31.620 1463.188
  31.640 1342.827
  31.660 1454.467
  31.680 1353.520
  31.700 1369.069
  31.720 1393.693
  31.740 1404.937
  31.760 1377.462
  31.780 1434.932
  31.800 1474.098
  31.820 1423.655
  31.840 1256.876
  31.860 1399.899
  31.880 1345.473
  31.900 1300.986
  31.920 1089.791
  31.940 1209.041
  31.960 1161.213
  31.980 1044.766
  32.000  926.717
  32.020 1081.900
  32.040  942.020
  32.060 1069.891
  32.080 1159.598
  32.100 1043.115
  32.120 1035.255
  32.140 1275.610
  32.160 1040.457
  32.180 1144.183
  32.200 1152.545
  32.220 1135.142
  32.240 1090.238
  32.260  993.034
  32.280 1150.035
  32.300 1134.317
  32.320 1111.386
  32.340  848.543
  32.360  805.360
  32.380  794.338
  32.400  829.127
  32.420  859.067
  32.440  931.307
  32.460  888.173
  32.480  854.388
  32.500  861.484
  32.520  835.696
  32.540  783.918
  32.560  658.474
  32.580  855.082
  32.600  730.376
  32.620  663.445
  32.640  683.307
  32.660  818.765
  32.680  621.957
  32.700  744.830
  32.720  841.462
  32.740  645.049
  32.760  765.531
  32.780  570.570
  32.800  645.202
  32.820  623.419
  32.840  818.719
  32.860  770.441
  32.880  801.578
  32.900  723.681
  32.920  746.593
  32.940  765.087
  32.960  812.898
  32.980  779.316
  33.000  718.703
  33.020  843.296
  33.040  658.279
  33.060  811.103
  33.080  634.414
  33.100  671.099
  33.120  618.343
  33.140  725.398
  33.160  818.510
  33.180  619.974
  33.200  754.770
  33.220  645.747
  33.240  740.354
  33.260  545.607
  33.280  753.475
  33.300  782.817
  33.320  563.281
  33.340  534.458
  33.360  570.604
  33.380  649.644
  33.400  713.192
  33.420  513.679
  33.440  558.352
  33.460  618.105
  33.480  651.935
  33.500  677.863
  33.520  695.667
  33.540  538.810
  33.560  667.018
  33.580  618.889
  33.600  731.518
  33.620  518.005
  33.640  655.661
  33.660  573.834
  33.680  549.665
  33.700  743.531
  33.720  699.068
  33.740  607.360
  33.760  571.386
  33.780  791.891
  33.800  568.925
  33.820  726.847
  33.840  749.143
  33.860  644.756
  33.880  710.031
  33.900  626.746
  33.920  824.266
  33.940  787.108
  33.960  709.719
  33.980  648.098
  34.000  791.429
  34.020  681.516
  34.040  851.071
  34.060  673.504
  34.080  789.360
  34.100  638.695
  34.120  795.094
  34.140  838.537
  34.160  648.408
  34.180  731.324
  34.200  803.891
  34.220  767.307
  34.240  658.437
  34.260  631.266
  34.280  734.034
  34.300  617.341
  34.320  735.835
  34.340  804.885
  34.360  817.295
  34.380  655.858
  34.400  733.694
  34.420  816.700
  34.440  780.471
  34.460  775.112
  34.480  933.248
  34.500  830.020
  34.520  986.685
  34.540  860.644
  34.560 1120.260
  34.580  932.732
  34.600 1087.078
  34.620 1141.147
  34.640 1292.157
  34.660 1350.062
  34.680 1330.690
  34.700 1642.853
  34.720 1467.786
  34.740 1469.013
  34.760 1523.156
  34.780 1572.823
  34.800 1579.094
  34.820 1623.121
  34.840 1698.364
  34.860 1856.278
  34.880 1789.270
  34.900 1808.291
  34.920 1931.164
  34.940 1896.912
  34.960 1893.348
  34.980 1932.758
  35.000 2004.189
  35.020 2376.373
  35.040 2302.251
  35.060 2533.827
  35.080 2609.918
  35.100 2683.336
  35.120 2726.754
  35.140 2753.067
  35.160 2945.142
  35.180 2747.959
  35.200 2796.189
  35.220 2682.824
  35.240 2590.261
  35.260 2573.487
  35.280 2323.267
  35.300 2093.332
  35.320 2016.848
  35.340 1750.678
  35.360 1623.314
  35.380 1624.324
  35.400 1294.449
  35.420 1397.490
  35.440 1079.411
  35.460 1059.068
  35.480  924.882
  35.500  887.089
  35.520  962.445
  35.540  879.232
  35.560  902.655
  35.580  950.612
  35.600  921.642
  35.620  907.589
  35.640  727.137
  35.660  945.918
  35.680  724.113
  35.700  768.548
  35.720  854.173
  35.740  733.932
  35.760  890.933
  35.780  685.722
  35.800  827.575
  35.820  887.594
  35.840  832.945
  35.860  818.862
  35.880  893.858
  35.900  753.994
  35.920  756.715
  35.940  876.894
  35.960  873.618
  35.980  733.037
  36.000  819.960
  36.020  759.326
  36.040  945.481
  36.060  835.837
  36.080  801.287
  36.100  763.323
  36.120  796.402
  36.140  945.336
  36.160  821.794
  36.180  945.210
  36.200  916.921
  36.220  907.156
  36.240  870.995
  36.260  755.576
  36.280  878.030
  36.300  922.713
  36.320  893.362
  36.340  756.886
  36.360  785.725
  36.380  902.437
  36.400  874.472
  36.420  816.298
  36.440  976.060
  36.460  957.774
  36.480  912.484
  36.500 1029.499
  36.520 1037.025
  36.540  895.755
  36.560  996.959
  36.580 1076.342
  36.600 1147.779
  36.620 1100.778
  36.640 1027.360
  36.660 1069.281
  36.680 1112.957
  36.700 1154.172
  36.720 1008.189
  36.740  977.894
  36.760 1056.083
  36.780 1116.716
  36.800 1118.092
  36.820 1071.890
  36.840  976.436
  36.860  900.298
  36.880  935.761
  36.900  896.821
  36.920  974.389
  36.940  814.925
  36.960  803.629
  36.980  967.343
  37.000  854.502
  37.020  961.421
  37.040  946.282
  37.060  957.687
  37.080  928.282
  37.100  701.015
  37.120  842.559
  37.140  744.693
  37.160  852.567
  37.180  860.621
  37.200  781.959
  37.220  900.064
  37.240  857.049
  37.260  746.531
  37.280  767.031
  37.300  709.097
  37.320  826.433
  37.340  839.862
  37.360  810.391
  37.380  795.473
  37.400  883.076
  37.420  836.411
  37.440  783.541
  37.460  778.548
  37.480  816.850
  37.500  938.851
  37.520  718.150
  37.540  799.471
  37.560 1010.823
  37.580 1027.626
  37.600  810.113
  37.620  921.195
  37.640 1042.284
  37.660  898.595
  37.680  983.204
  37.700 1104.718
  37.720  957.468
  37.740  963.650
  37.760 1174.967
  37.780 1206.100
  37.800 1141.102
  37.820 1217.266
  37.840 1210.950
  37.860 1268.952
  37.880 1227.277
  37.900 1168.235
  37.920 1203.965
  37.940 1171.231
  37.960 1252.465
  37.980 1176.277
  38.000 1243.092
  38.020 1071.941
  38.040 1214.412
  38.060 1013.564
  38.080 1177.980
  38.100 1043.558
  38.120 1058.031
  38.140  866.441
  38.160  996.283
  38.180  797.581
  38.200  824.071
  38.220  800.754
  38.240  825.729
  38.260  798.584
  38.280  776.342
  38.300  857.333
  38.320  750.606
  38.340  806.711
  38.360  870.106
  38.380  673.468
  38.400  866.710
  38.420  798.296
  38.440  656.259
  38.460  730.851
  38.480  768.170
  38.500  588.815
  38.520  776.506
  38.540  570.790
  38.560  692.906
  38.580  676.166
  38.600  671.617
  38.620  640.316
  38.640  598.662
  38.660  650.132
  38.680  514.229
  38.700  605.104
  38.720  618.500
  38.740  558.503
  38.760  705.621
  38.780  521.795
  38.800  510.751
  38.820  564.250
  38.840  629.781
  38.860  500.066
  38.880  616.891
  38.900  586.607
  38.920  552.175
  38.940  648.814
  38.960  495.942
  38.980  709.468
  39.000  480.177
  39.020  635.733
  39.040  501.331
  39.060  662.699
  39.080  641.138
  39.100  515.420
  39.120  599.883
  39.140  714.191
  39.160  565.549
  39.180  577.525
  39.200  616.508
  39.220  624.984
  39.240  732.078
  39.260  681.848
  39.280  658.810
  39.300  684.115
  39.320  623.909
  39.340  693.622
  39.360  649.559
  39.380  569.626
  39.400  644.010
  39.420  732.278
  39.440  520.060
  39.460  712.362
  39.480  480.731
  39.500  570.305
  39.520  539.380
  39.540  741.905
  39.560  573.698
  39.580  539.348
  39.600  726.013
  39.620  667.408
  39.640  687.810
  39.660  719.179
  39.680  595.478
  39.700  611.999
  39.720  680.690
  39.740  754.308
  39.760  698.242
  39.780  695.412
  39.800  759.508
  39.820  710.387
  39.840  740.261
  39.860  670.216
  39.880  662.397
  39.900  670.517
  39.920  577.069
  39.940  727.649
  39.960  618.451
  39.980  665.635
  40.000  641.521
  40.020  597.075
  40.040  725.334
  40.060  644.607
  40.080  750.364
  40.100  868.038
  40.120  785.689
  40.140  684.883
  40.160  885.939
  40.180  757.113
  40.200  717.883
  40.220  760.973
  40.240  957.796
  40.260  904.049
  40.280  747.965
  40.300  995.714
  40.320  865.930
  40.340  833.033
  40.360  856.146
  40.380  790.446
  40.400  840.138
  40.420  726.900
  40.440  958.023
  40.460  787.933
  40.480  794.731
  40.500  807.832
  40.520  910.713
  40.540  799.887
  40.560  729.863
  40.580  692.143
  40.600  687.074
  40.620  813.599
  40.640  866.711
  40.660  678.032
  40.680  800.529
  40.700  796.938
  40.720  873.609
  40.740  701.828
  40.760  646.004
  40.780  776.335
  40.800  835.448
  40.820  747.704
  40.840  814.889
  40.860  862.613
  40.880  770.024
  40.900  755.615
  40.920  902.312
  40.940  952.875
  40.960  837.592
  40.980 1010.318
  41.000  915.504
  41.020  756.750
  41.040  875.813
  41.060  942.566
  41.080  746.995
  41.100  966.898
  41.120  814.825
  41.140  888.339
  41.160  888.511
  41.180  775.890
  41.200  809.226
  41.220  849.426
  41.240  852.811
  41.260  825.004
  41.280  741.070
  41.300  711.307
  41.320  907.630
  41.340  753.782
  41.360  840.050
  41.380  672.213
  41.400  803.857
  41.420  821.844
  41.440  731.797
  41.460  770.995
  41.480  901.852
  41.500  734.852
  41.520  822.128
  41.540  820.222
  41.560  804.310
  41.580  666.047
  41.600  661.455
  41.620  647.032
  41.640  771.737
  41.660  613.160
  41.680  612.310
  41.700  684.423
  41.720  578.589
  41.740  819.922
  41.760  681.497
  41.780  538.882
  41.800  601.475
  41.820  778.383
  41.840  677.950
  41.860  778.484
  41.880  755.422
  41.900  770.699
  41.920  760.019
  41.940  735.724
  41.960  836.128
  41.980  814.309
  42.000  831.515
  42.020  896.162
  42.040  698.905
  42.060  917.596
  42.080  935.837
  42.100  816.803
  42.120  802.066
  42.140  836.167
  42.160  874.369
  42.180  785.275
  42.200  832.371
  42.220 1005.706
  42.240  997.883
  42.260 1058.824
  42.280 1029.879
  42.300  932.336
  42.320  921.858
  42.340  894.942
  42.360 1076.245
  42.380  982.190
  42.400 1003.714
  42.420  964.396
  42.440  919.800
  42.460 1109.987
  42.480 1016.373
  42.500  960.755
  42.520 1106.577
  42.540 1144.165
  42.560 1073.188
  42.580 1145.105
  42.600 1004.139
  42.620 1108.283
  42.640 1086.962
  42.660 1115.152
  42.680 1033.421
  42.700  939.763
  42.720  794.196
  42.740  851.454
  42.760  751.095
  42.780  849.618
  42.800  721.781
  42.820  689.959
  42.840  649.114
  42.860  617.361
  42.880  560.651
  42.900  714.226
  42.920  763.550
  42.940  716.710
  42.960  693.963
  42.980  546.088
  43.000  595.210
  43.020  513.213
  43.040  696.760
  43.060  490.622
  43.080  721.211
  43.100  695.954
  43.120  655.125
  43.140  654.726
  43.160  486.804
  43.180  518.030
  43.200  471.155
  43.220  654.186
  43.240  639.593
  43.260  528.672
  43.280  471.759
  43.300  649.048
  43.320  588.108
  43.340  581.081
  43.360  637.004
  43.380  632.687
  43.400  569.797
  43.420  454.861
  43.440  602.843
  43.460  463.831
  43.480  662.482
  43.500  574.872
  43.520  669.620
  43.540  605.333
  43.560  519.394
  43.580  500.950
  43.600  649.285
  43.620  663.622
  43.640  446.332
  43.660  635.703
  43.680  621.095
  43.700  627.111
  43.720  662.189
  43.740  535.767
  43.760  503.795
  43.780  455.357
  43.800  515.046
  43.820  636.287
  43.840  721.899
  43.860  651.375
  43.880  556.500
  43.900  500.784
  43.920  641.463
  43.940  628.696
  43.960  679.576
  43.980  728.444
  44.000  544.260